IQRAccX,IQRAccY,IQRAccZ,IQRGyroX,IQRGyroY,IQRGyroZ,IQRMagX,IQRMagY,IQRMagZ,KurtosisAccX,KurtosisAccY,KurtosisAccZ,KurtosisGyroX,KurtosisGyroY,KurtosisGyroZ,KurtosisMagX,KurtosisMagY,KurtosisMagZ,MADAccX,MADAccY,MADAccZ,MADGyroX,MADGyroY,MADGyroZ,MADMagX,MADMagY,MADMagZ,MaxAccX,MaxAccY,MaxAccZ,MaxGyroX,MaxGyroY,MaxGyroZ,MaxMagX,MaxMagY,MaxMagZ,MedianAccX,MedianAccY,MedianAccZ,MedianGyroX,MedianGyroY,MedianGyroZ,MedianMagX,MedianMagY,MedianMagZ,MinAccX,MinAccY,MinAccZ,MinGyroX,MinGyroY,MinGyroZ,MinMagX,MinMagY,MinMagZ,RMSAccX,RMSAccY,RMSAccZ,RMSGyroX,RMSGyroY,RMSGyroZ,RMSMagX,RMSMagY,RMSMagZ,SkewAccX,SkewAccY,SkewAccZ,SkewGyroX,SkewGyroY,SkewGyroZ,SkewMagX,SkewMagY,SkewMagZ,StdAccX,StdAccY,StdAccZ,StdGyroX,StdGyroY,StdGyroZ,StdMagX,StdMagY,StdMagZ,VarianceAccX,VarianceAccY,VarianceAccZ,VarianceGyroX,VarianceGyroY,VarianceGyroZ,VarianceMagX,VarianceMagY,VarianceMagZ,meanAccX,meanAccY,meanAccZ,meanGyroY,meanGyroZ,meanMagX,meanMagY,Label
0.380698,0.2202775,0.2514035,0.053264,0.048603,0.0450085,0.9019775,1.262768,0.610882,-1.597762722,-1.184271524,-0.7671489522,-0.6881605559,-0.6762447782,-1.40714538,-1.011681248,-1.271744277,-0.9148530955,3.46463382,1.192743107,1.022352081,0.05054042703,0.4015598457,0.2846848302,6.953816568,1.337273101,2.328939765,-3.007271,5.075966,4.8509,0.256674,-0.593146,-0.164288,4.690278,52.31464,-70.862556,-7.570851,4.271473,2.504462,-0.335888,-1.495172,-0.454843,-5.953045,50.510684,-73.306091,-9.907711,1.709547,1.019982,-0.369977,-1.808897,-0.770699,-15.513997,49.608707,-75.226013,7.476798037,4.039480386,3.023572608,0.3013822393,1.422633247,0.5179829801,8.620933299,50.7728018,73.49696265,0.2599287733,-0.5767003674,0.4005424277,0.9563276803,0.8243619622,-0.01171697223,-0.02075263206,0.408137776,0.5352367735,2.770645887,1.289758245,1.265905431,0.2416577867,0.4282924564,0.2197379547,6.796475741,0.9854288229,1.549365363,7.676478633,1.663476331,1.602516561,0.05839848586,0.1834344282,0.04828476872,46.1920825,0.9710699651,2.400533028,-6.9444964,3.8280446,2.7458104,-1.3566322,-0.4690646,-5.3036222,50.763238,0
0.380698,0.2202775,0.2514035,0.053264,0.048603,0.0450085,0.9019775,1.262768,0.610882,-1.323387017,-1.512945323,-1.023801613,-1.09474436,-1.428672217,-1.361832139,-0.7435659684,-1.402365938,-1.101878416,2.346437436,1.352485341,0.3159351198,0.03356240772,0.5581159682,0.2331569901,1.203545346,0.9360913191,1.293855095,-2.69122,3.567542,4.803013,0.304612,1.394668,0.811243,-6.313836,52.495033,-71.386169,-4.9083635,2.0399635,4.398373,0.270922,0.9657595,0.5786125,-14.341427,51.412662,-73.0442845,-8.260417,0.809281,4.003309,0.205807,0.016994,0.323611,-15.333601,50.510684,-74.527862,5.600428665,2.366979768,4.40989582,0.2656176182,1.002583486,0.6012148587,13.1066223,51.46319475,73.00934772,-0.3153453556,0.1430770411,0.02501724153,-0.5484781945,-0.4242964181,-0.07344484474,1.065051422,0.1381454078,0.1097165394,2.099283754,1.06433286,0.2836035192,0.03673050884,0.5537327395,0.1819551386,3.669115865,0.7478794578,1.126922648,4.406992279,1.132804437,0.08043095613,0.00134913028,0.3066199468,0.03310767245,13.46241123,0.5593236834,1.269954655,-5.192091,2.1141875,4.400767,0.83579525,0.57301975,-12.58257275,51.45776025,0
0.380698,0.2202775,0.2514035,0.053264,0.048603,0.0450085,0.9019775,1.262768,0.610882,-1.132845368,-1.006688336,-0.8507773553,-1.106521018,-1.17196226,-1.468194413,-1.245981137,-0.7010748154,-0.9662424013,1.313437305,0.7241651928,0.5182754814,0.4368984109,0.3182464966,0.2763933773,7.756180132,0.2674547685,0.7763097954,-5.952289,5.368074,4.520483,0.556018,-0.957738,-0.052167,7.035417,50.510684,-71.037094,-9.41927,4.5755525,2.164469,-0.1658425,-1.665617,-0.4487175,-0.9019765,47.804756,-71.909782,-10.353056,3.074312,1.790954,-0.633368,-1.925812,-0.681748,-11.18451,47.443965,-73.655166,8.964727303,4.477916736,2.88202195,0.4458164453,1.599357084,0.4767847908,6.873393058,48.40673612,72.13433063,0.6957049346,-0.5740024167,0.9573534002,0.3954936654,0.632128365,0.3238143607,-0.2229822678,1.104107804,-0.6245901094,1.781304245,0.8402710536,1.109031902,0.4339302374,0.37943619,0.2469662129,6.710336045,1.232608981,0.9589678178,3.173044812,0.7060554436,1.22995176,0.1882954509,0.1439718223,0.06099231032,45.02860984,1.5193249,0.9196192756,-8.78597125,4.39837275,2.66009375,-1.553696,-0.4078375,-1.4882615,48.39104025,0
0.380698,0.2202775,0.2514035,0.053264,0.048603,0.0450085,0.9019775,1.262768,0.610882,-1.320269684,-1.717140826,-0.8521021939,-1.229489123,-1.151821392,-1.085774189,-1.558090992,-1.789241435,-1.069854181,2.662371814,1.260189647,0.3443328826,0.1267454398,0.5867420519,0.1383942454,3.343179788,1.337270877,0.5175401107,-1.972923,4.132603,4.721606,0.633783,1.60293,0.78834,-10.282533,50.149894,-69.640785,-4.446259,3.165296,4.324149,0.349753,1.1047785,0.674088,-15.4237985,48.8871265,-70.9498245,-8.418442,1.676027,3.198817,0.255609,-0.188339,0.326274,-17.859134,47.804756,-71.386169,5.403738137,3.201533294,4.181253148,0.4252874892,1.142151198,0.6417201025,15.07542496,48.94193038,70.73492125,-0.3530381571,-0.1794252428,-0.8465647836,0.6061258313,-0.6347741387,-0.7121860106,0.3330861566,0.06242664286,0.7207008516,2.441029882,1.019691626,0.5702812167,0.1519280917,0.6954180857,0.1808902385,3.128115795,0.9745933415,0.6801961264,5.958626886,1.039771012,0.3252206661,0.02308214504,0.4836063139,0.0327212784,9.785108428,0.9498321812,0.4626667703,-4.82097075,3.0348055,4.14218025,0.906037,0.6156975,-14.747316,48.93222575,0
0.380698,0.2202775,0.2514035,0.053264,0.048603,0.0450085,0.9019775,1.262768,0.610882,-1.428472787,-1.448815037,-0.1194700066,-1.200019877,-1.599246344,-1.474047496,-1.549059554,-0.7658174406,-1.222751037,3.351039804,1.693268874,0.8590590144,0.4667090937,0.8447756246,0.4009668048,13.23899584,2.005910393,0.5175401107,-0.684777,5.085544,5.712856,0.324053,-0.50233,0.262624,5.953045,53.216613,-70.338943,-8.1526725,3.8357065,2.9186805,-0.329896,-1.416341,-0.400647,-4.058894,48.8871265,-70.862556,-10.592489,1.130121,1.848418,-0.697018,-2.073886,-0.680416,-17.859134,47.083175,-72.60794,7.77552504,3.712908281,3.452074523,0.4421708214,1.454960655,0.4844010345,10.96634266,49.38335812,71.24545546,0.4822824945,-0.4318869726,1.009707887,0.4038792067,0.1743412108,0.3472565955,-0.2098869369,0.696856377,-0.6248847849,3.846284205,1.526100124,1.257782429,0.3575647273,0.6047891966,0.3656756717,9.415422941,2.113398016,0.8212364454,14.79390219,2.328981589,1.582016639,0.1278525342,0.3657699723,0.1337186969,88.65018915,4.466451172,0.6744292993,-6.75758,3.384775667,3.214778667,-1.323306667,-0.317688,-5.62232,49.33811517,0
0.380698,0.2202775,0.2514035,0.053264,0.048603,0.0450085,0.9019775,1.262768,0.610882,-1.568530273,-1.361512583,-1.584715457,-1.607463858,-0.01820821449,-0.7441067657,-1.35132762,0.02388640958,-0.5886426845,4.323693576,2.484881348,1.640021957,0.4896101088,0.0947620034,0.1772866081,7.488721657,0.267458475,0.7763097954,-1.383919,5.075966,5.784686,0.653491,1.486815,0.742266,-6.313836,50.691082,-68.069946,-5.190894,2.786993,3.572331,0.282241,1.148056,0.573153,-16.235576,50.510684,-71.560707,-9.002657,1.110966,2.466153,-0.071965,-0.048255,0.169145,-21.827831,46.722385,-72.08432,5.836379425,3.589791925,4.358514176,0.4228584953,1.11440841,0.5571687706,16.20628625,49.66725345,70.80845313,-0.0303350747,-0.103064464,0.126856756,-0.01358191252,-1.250257634,-0.73817485,0.3432135688,-1.351006277,0.9808786606,2.914100416,1.460486862,1.280649563,0.2854044449,0.5311473679,0.1999662286,5.746658707,1.493690015,1.491661753,8.491981235,2.133021874,1.640063304,0.08145569718,0.2821175265,0.03998649256,33.0240863,2.23110986,2.225054785,-5.0568116,3.2792658,4.1661232,0.979688,0.5200486,-15.1532052,49.6447878,0
0.380698,0.2202775,0.2514035,0.053264,0.048603,0.0450085,0.9019775,1.262768,0.610882,-1.586917275,-1.487727561,-1.514443653,-0.7441603735,-1.63056002,-0.7663167851,-1.382061427,-1.045931797,-0.3072817706,4.891666625,3.003156089,1.490928513,0.395240995,0.5709486317,0.4663139802,12.30290453,3.209451292,0.5175512302,-1.953768,6.349746,5.775109,-0.069036,-0.728436,0.041844,3.788301,55.200962,-69.98986,-5.669758,3.778243,2.935441,-0.388886,-1.59158,-0.345119,-7.937393,53.03622,-74.004241,-10.396154,0.129293,1.929825,-1.238447,-1.976679,-1.209861,-19.302297,46.361595,-76.098701,6.851587143,4.272150731,3.93626481,0.6583124944,1.538723886,0.653595402,12.03386714,51.98478148,73.68237573,-0.09985313909,-0.2049467024,0.3391115338,-0.7674741959,0.2769934927,-0.5154901664,0.1234302609,-0.6498478243,0.8536942587,3.239215417,2.360445848,1.447530156,0.4113768872,0.513133027,0.417674647,8.43092794,3.272272766,2.002252373,10.49251652,5.571704602,2.095343553,0.1692309433,0.2633055034,0.1744521108,71.08054594,10.70776905,4.009014566,-6.0375268,3.560838,3.6604422,-1.4506432,-0.5027274,-8.5868162,51.8816898,0
0.380698,0.2202775,0.2514035,0.053264,0.048603,0.0450085,0.9019775,1.262768,0.610882,-1.514704566,-1.440303726,0.1664131413,-0.8735260451,0.04073596041,-1.581173849,-1.274676279,-1.536560944,-0.7286195928,4.806470371,1.498028695,0.1703925078,0.1855773197,0.2471735115,0.2278270351,10.43072189,2.941998747,1.293849165,-1.178007,5.7368,4.118237,0.647632,1.589881,0.770496,-4.509882,51.412662,-69.117172,-5.626661,4.726395,4.003309,0.27292,1.402924,0.616829,-14.070835,47.985149,-70.862556,-9.108008,1.513213,1.781377,0.096349,0.082509,0.240519,-21.647436,46.000801,-71.909782,6.414030355,4.181196923,3.663713995,0.3729653884,1.310956161,0.5512111642,15.85878918,48.82191428,70.86951838,0.1571583662,-0.3853513953,-1.441501384,0.6209857845,-1.348618445,-0.2103246019,0.2898582507,0.09188483982,0.7157453889,3.089515246,1.568299553,0.8931616346,0.1919277408,0.5626746518,0.2018807779,6.414162815,2.049215071,0.9934883453,9.545104453,2.459563488,0.7977377056,0.03683625767,0.3166027637,0.04075584849,41.14148462,4.199282405,0.9870190923,-5.6209146,3.8759314,3.5531764,1.1840622,0.5129112,-14.5037826,48.7788892,0
0.380698,0.2202775,0.2514035,0.053264,0.048603,0.0450085,0.9019775,1.262768,0.610882,-1.054198455,-1.0154638,-0.765431289,-1.476715313,-0.7781084844,-1.176138416,-1.150152233,-1.608229909,-0.842883207,1.998554462,0.8484094826,0.2875366156,0.518631306,0.1753117819,0.1836032348,8.558543697,1.738453401,0.9056942671,-3.596274,5.396806,3.141353,0.109133,-1.024318,-0.280669,5.77265,54.840171,-72.258865,-9.103219,4.4247105,2.870794,-0.4991425,-1.8417875,-0.7033195,-2.7961275,52.3146375,-73.3933595,-10.678684,2.849245,1.321667,-0.975589,-2.057906,-0.847132,-17.678739,51.051872,-76.447784,8.590924116,4.372049741,2.651666816,0.6248171492,1.737051886,0.6721792953,9.736751653,52.6538784,73.88977081,0.7544187176,-0.4608004796,-1.032055169,0.1677745738,0.9727123308,0.6423507621,-0.4627128866,0.2930891702,-0.8335812779,2.804266266,0.9213420947,0.7231599936,0.4160141615,0.3954073824,0.2244178533,8.698697034,1.57458811,1.558066556,7.863909291,0.8488712555,0.5229603763,0.1730677826,0.156346998,0.05036337287,75.66733009,2.479327717,2.427571394,-8.120349,4.273868,2.551152,-1.69144975,-0.63361,-4.374586,52.6303295,0
0.1711945,0.0933785,0.19992625,0.0664465,0.047871,0.0256995,0.67648175,0.94707725,0.523617,-1.468489622,-1.540394136,0.4054510537,-0.3071660204,-1.40246228,-1.526251025,-1.338277406,-1.581897451,-1.75494669,4.628977681,1.057848544,1.164343861,0.1247713549,0.698089185,0.1500408271,9.360905778,2.1396337,0.258770426,-0.560272,3.634583,6.344958,0.010481,-0.313757,0.056341,7.576603,42.573291,-42.587348,-5.91398,2.581081,5.511733,-0.073676,-1.071438,-0.058443,-1.443162,40.228153,-48.347114,-9.127162,1.795743,2.164469,-0.543199,-1.561201,-0.19906,-11.18451,37.883014,-48.521652,6.285571886,2.794455347,5.271960684,0.2513314949,1.090033292,0.12545128,6.889859392,40.37050725,46.37255774,0.233849517,-0.02677581491,-1.246930172,-0.9580435531,0.1044065367,0.04092142519,-0.07242032205,0.05143614293,0.3695267024,3.18530059,0.6776008269,1.348839453,0.1828772418,0.4495247583,0.09435250711,6.613200443,1.780234681,2.547669575,10.14613985,0.4591428806,1.819367869,0.03344408557,0.2020725083,0.008902395599,43.7344201,3.169235518,6.490620263,-5.418696714,2.711058429,5.096489143,-0.9930257143,-0.08267785714,-1.932806857,40.33123629,0
0.1711945,0.0933785,0.19992625,0.0664465,0.047871,0.0256995,0.67648175,0.94707725,0.523617,-1.023191278,-1.503189206,-0.5050218112,-0.05659928873,-1.733029898,-0.5765134772,-1.554798914,-1.620866994,-0.9845963795,0.9371550862,0.3194844695,1.412832441,0.1364201605,1.064901282,0.104042352,13.23899807,2.941998747,1.940782643,-0.579426,4.252319,6.957905,0.62861,1.795232,0.125052,7.035417,43.294872,-39.271121,-8.1670385,4.0104925,3.390362,0.4300685,1.0565935,-0.0026485,-4.0588945,39.4163735,-46.7762675,-8.8159,1.834052,1.853207,0.032319,0.001566,-0.251258,-12.988463,37.341827,-48.696189,7.064008674,3.527563647,4.241264036,0.447620183,1.222510162,0.1250568148,8.749327821,39.87552377,45.32925005,0.8461044108,-0.6732894766,0.7385457212,-0.9463568554,-0.125073051,-0.7092872341,0.09039659058,0.2418238011,0.7483570646,3.212076763,1.081645873,1.630044367,0.1886561903,0.725780857,0.1231692235,7.970805982,2.332771384,3.348225086,10.31743713,1.169957795,2.65704464,0.03559115813,0.5267578524,0.01517065761,63.533748,5.441822329,11.21061123,-6.291484833,3.357640167,3.915517333,0.9837546667,-0.021646,-3.6079065,39.80723017,0
0.1711945,0.0933785,0.19992625,0.0664465,0.047871,0.0256995,0.67648175,0.94707725,0.523617,-1.641321488,-1.415467673,-0.884716769,-0.1537312102,-1.597360892,-0.8948475313,-1.559880013,-1.48005377,-1.497949629,5.417041547,1.260189647,0.8129107964,0.1081877078,1.047528891,0.1354327475,12.57036078,3.075727985,1.811394465,0.593792,5.248358,6.239607,0.250169,-0.237856,0.214536,5.592255,41.13013,-37.874813,-5.660181,3.4358545,5.384834,-0.2105645,-1.0526625,-0.0375365,-5.682452,38.7849895,-44.332731,-10.05616,2.284185,3.950634,-0.69873,-2.320213,-0.210511,-14.61202,35.177085,-46.078113,6.453946473,3.709999339,5.291718892,0.3593765098,1.495618641,0.1385247304,9.379399399,38.60740491,42.72256676,0.1530690425,0.2857086516,-0.4466936885,0.03568125446,-0.2544208567,0.3438244523,0.1308789241,-0.2381289557,0.589934921,4.050176625,1.069908067,0.7466399384,0.2776374419,0.8381704101,0.1372179263,7.978740197,2.203647114,3.396403608,16.40393069,1.144703272,0.5574711977,0.07708254912,0.7025296363,0.01882875929,63.66029513,4.856060602,11.53555747,-5.0248875,3.552378333,5.238780167,-1.238687,-0.01898266667,-4.930805,38.54446333,0
0.1711945,0.0933785,0.19992625,0.0664465,0.047871,0.0256995,0.67648175,0.94707725,0.523617,-1.405796891,0.02596924643,-0.3034423145,-1.719337282,-0.3691514863,-1.570693815,-1.693469339,-1.349191587,-1.660428324,2.988957207,0.2413883976,1.228241051,0.2550713335,0.265732726,0.2025560803,11.2330899,1.604725646,1.552624039,-0.201123,4.400767,5.741588,0.456834,2.160624,0.013197,4.149092,40.588943,-39.969272,-7.393671,3.897959,4.803013,0.284791,1.633576,-0.207049,-7.396207,37.341827,-43.460041,-9.409692,2.078273,2.51404,0.068273,0.455908,-0.35752,-14.972811,36.259456,-44.50727,6.763183669,3.755707742,4.835450169,0.305693453,1.580846752,0.2403599335,9.492290846,37.99178156,42.69936313,0.4985725417,-1.300656656,-1.069175536,-0.09242626532,-0.8299699086,0.1815029749,0.1424284273,0.4905421536,0.3574278412,3.552558525,0.8151093548,1.161688206,0.1636302041,0.5617489768,0.1451249967,7.747847356,1.667462173,1.897899383,12.62067208,0.6644032603,1.349519489,0.02677484369,0.315561913,0.02106126466,60.02913865,2.780430098,3.602022069,-5.7549962,3.6661884,4.693832,1.477672,-0.1916028,-5.4840174,37.9551714,0
0.1711945,0.0933785,0.19992625,0.0664465,0.047871,0.0256995,0.67648175,0.94707725,0.523617,-1.53697921,-1.117793361,-0.4191388087,-0.3646732522,-1.308557014,-0.2477339214,-1.4588946,-1.509738829,-0.2429959033,4.437289075,1.306337123,0.5537741676,0.2728388385,1.060558741,0.08844611795,7.75617865,1.337273101,2.846480617,1.403074,5.674547,5.698491,0.512228,-0.208827,0.267533,5.051068,39.326175,-39.445659,-6.593967,3.629795,5.324976,-0.210032,-1.455472,0.024383,-0.180395,36.800643,-41.714656,-9.586873,2.58587,2.820513,-0.714442,-2.28213,-0.27283,-14.431625,35.898666,-45.205425,6.595939492,3.99718793,4.877781409,0.3923314918,1.390287225,0.1582502247,8.183098485,37.54154637,41.43333023,0.3667488653,0.4851228615,-0.9488452526,0.4155859963,0.003976495973,-0.3674470688,-0.4388393333,0.2333205807,-0.8346237814,4.273884663,1.069539468,0.9763408279,0.3589824032,0.6988148313,0.1564657523,7.57625227,1.204351782,1.883140054,18.26609011,1.143914673,0.9532414121,0.1288683658,0.4883421684,0.02448153163,57.39959846,1.450463214,3.546216465,-5.023975286,3.851440857,4.77907,-1.201897,0.02369814286,-3.092491286,37.52222329,0
0.1711945,0.0933785,0.19992625,0.0664465,0.047871,0.0256995,0.67648175,0.94707725,0.523617,-1.512675768,-1.367890318,-0.5014946432,-1.021723222,-1.679233136,1.497739537,-1.689476194,-1.588924895,-1.578836974,2.151196515,1.455429085,0.8164601461,0.2242732376,0.8429987258,0.04580203034,12.03545198,2.94200023,2.070164891,0.507597,4.793436,6.162989,0.450176,1.850627,0.090697,7.396207,40.949733,-38.398429,-8.207742,3.634583,3.974577,0.103427,0.615434,-0.001716,-5.411859,38.784992,-45.5545,-9.658702,2.202778,1.211528,-0.22974,0.04684,-0.379625,-13.529648,36.439849,-46.950805,6.85097462,3.520992458,4.40258769,0.2507719847,1.224447035,0.1494551883,8.915043562,38.48736447,43.47410686,0.4856245668,0.1380637978,-0.3327343957,-0.1022717079,0.1034315871,-1.702531444,0.07297168357,0.06388714001,0.445977969,3.970807891,0.894737423,1.560183173,0.2161142459,0.6912121556,0.1431369879,8.302664708,1.696177997,3.470403312,15.76731531,0.8005550561,2.434171534,0.04670536727,0.477774244,0.02048819729,68.93424126,2.877019798,12.04369915,-5.582879,3.405412286,4.116868571,1.010691,-0.042996,-3.247115714,38.44997014,0
0.1711945,0.0933785,0.19992625,0.0664465,0.047871,0.0256995,0.67648175,0.94707725,0.523617,-1.261350551,-1.365170002,-0.0815101309,-0.9074368644,-1.648810902,-0.4481960665,-1.293017089,-1.461914762,-1.722955246,3.067053279,0.2058904527,0.4330784862,0.3004789916,0.980799189,0.02211152949,9.093453234,2.1396337,4.140335712,-1.580254,4.386401,5.071177,0.160153,-0.736673,0.069125,6.674626,40.408546,-41.191043,-8.121546,4.24753,4.77907,-0.148512,-1.549483,-0.025685,-0.360791,38.243804,-44.681808,-10.190242,2.528406,2.854034,-0.651058,-2.211022,-0.174825,-10.102137,36.259456,-47.474422,7.3224043,3.790981879,4.512101725,0.3315305297,1.569457288,0.08744166952,6.25792327,38.23878306,44.51493505,0.5069409086,-0.6118601059,-1.269386664,-0.5525861408,0.05941125974,-0.5095833769,-0.3048374807,0.1026697984,0.07688866158,3.145931347,0.7407564146,0.8189430911,0.2835188823,0.5853440403,0.07815556338,6.245326093,1.540874883,2.625278809,9.89688404,0.5487200657,0.6706677865,0.08038295661,0.3426276455,0.006108292087,39.00409801,2.374295404,6.892088823,-6.6121646,3.7179058,4.4371606,-1.4562172,-0.0392142,-0.3968698,38.2077248,0
0.1711945,0.0933785,0.19992625,0.0664465,0.047871,0.0256995,0.67648175,0.94707725,0.523617,-1.542547732,-1.467505139,-1.590021006,-0.8820619414,-0.2448217442,0.005520426146,-1.583806767,-0.3674557694,-0.5838918885,4.068106297,1.299238424,1.036550963,0.2238773828,0.3427272244,0.02921912452,8.558543697,1.604725646,2.070170821,-0.038309,4.822168,5.166951,0.572949,1.971536,0.093892,3.247116,41.851711,-41.889194,-6.541292,3.945845,4.467808,0.303167,1.375245,-0.048056,-9.019765,40.408546,-47.125343,-9.285188,2.154891,3.251492,0.042173,0.028731,-0.087472,-14.792415,35.718269,-48.521652,6.537439149,3.81676938,4.407001981,0.3784566882,1.420888385,0.07148653426,9.992011036,39.59699401,46.06515417,0.3434509206,-0.3367799248,-0.2240405671,-0.3333881911,-1.030581943,1.2961317,0.2975361888,-0.9493063002,0.8595033639,3.655676952,1.017519081,0.7685348057,0.1783572187,0.6570934682,0.06430648456,7.130887582,2.073840202,2.287983885,13.36397398,1.035345081,0.5906457476,0.03181129748,0.431771826,0.004135323956,50.8495577,4.300813185,5.234870257,-5.4197912,3.6786388,4.3394724,1.2598222,-0.031225,-6.9993376,39.5426494,0
0.1711945,0.0933785,0.19992625,0.0664465,0.047871,0.0256995,0.67648175,0.94707725,0.523617,-1.571013762,-1.17181458,-0.3396071294,-0.6574725043,-0.8301586528,-1.55576237,-1.520168012,-0.1040234147,-1.31965076,4.472785538,1.043649662,1.050749844,0.3731309481,0.635308394,0.1302999786,11.76799795,1.069816109,1.293855095,0.114928,4.692874,6.172566,0.343115,-0.262357,0.104812,5.592255,41.671314,-43.460041,-6.143835,3.514867,5.320187,0.012345,-1.115381,0.01373,-3.247116,38.965385,-45.5545,-9.414482,2.58587,3.074312,-0.773832,-2.284526,-0.139138,-14.070835,37.883014,-46.776268,6.467686409,3.529837735,5.049602961,0.3717279022,1.279782332,0.0937872086,8.552553637,39.44503802,45.24482881,0.2651678231,0.3796822196,-0.7432141821,-0.6651803963,-0.422665389,-0.237431513,0.07596248339,0.757277355,0.1987230498,3.669919827,0.7245897838,0.952336643,0.3631028142,0.6479626703,0.09377727066,7.345254156,1.115608309,1.14425268,13.46831153,0.5250303548,0.9069450817,0.1318436537,0.4198556221,0.008794176493,53.95275861,1.244581898,1.309314197,-5.325660143,3.454667,4.958986286,-1.103624571,0.001365285714,-4.381029,39.42925871,0
0.1711945,0.0933785,0.19992625,0.0664465,0.047871,0.0256995,0.67648175,0.94707725,0.523617,-1.618886655,-1.841117744,-1.303464053,-1.139181928,-1.346624558,-0.5633645613,-1.580412519,-1.315919132,-1.800701146,5.232450158,1.384433195,1.615173544,0.02191360209,0.5048112294,0.1502394958,9.762089043,2.941999488,1.682009993,0.684777,4.218798,6.335381,0.645388,1.851958,0.18311,1.803953,43.475269,-45.030883,-5.186105,3.270646,5.075966,0.007951,1.4651285,-0.0166305,-9.380556,41.130128,-46.688999,-8.758437,2.006443,2.566715,-0.007096,0.099039,-0.28588,-16.415973,37.883014,-47.998035,5.946485309,3.328863537,4.919024148,0.3231311916,1.361774691,0.1551306853,10.82947968,40.96807361,46.70495401,0.2102426171,-0.07473824863,-0.4339557831,0.8340044801,-0.5793925212,-0.5425773073,0.2647350928,-0.2226103121,0.08768795808,3.767046376,0.9405412307,1.363080657,0.2654503003,0.6711232062,0.1551230528,7.463185988,1.990942881,1.220728917,14.1906384,0.8846178066,1.857988876,0.07046386196,0.4504063579,0.02406316151,55.69914509,3.963853555,1.490179089,-4.601092167,3.1932295,4.726395,1.184915167,-0.001538833333,-7.847196,40.91966767,0
1.221105,1.355187,0.526751,0.398193,0.227213,0.178701,0.721581,2.525531,1.745385,-1.382961421,-1.400905192,-1.206059389,-0.7635747685,-1.0530549,-1.492960724,-1.278726574,-1.633026921,-1.578212854,3.180647296,3.578227837,0.7880623832,0.1780768351,0.1990022828,0.1551750786,7.48872907,9.62835684,1.552625521,2.810936,9.24209,6.502983,-0.11755,-0.043237,0.222066,-22.008226,60.252033,-55.503185,-0.138871,6.072005,5.971443,-0.444591,-0.335657,0.024989,-31.749572,52.31464,-58.993949,-3.543599,1.010405,1.996866,-0.568696,-0.598248,-0.108438,-37.883014,38.604595,-60.390254,2.203609354,6.285221885,5.17070804,0.4156363563,0.3494483168,0.1233829342,31.50707943,50.59293809,58.34193013,-0.05239793452,-0.2577040341,-0.7055626186,0.5023334182,0.07744190851,0.1170623626,0.3137125018,-0.128393958,0.462408877,2.187970233,2.827788126,1.717818961,0.1341007493,0.1686700403,0.112712315,5.565716376,8.321422205,1.879031209,4.787213739,7.996385685,2.950901983,0.01798301096,0.0284495825,0.01270406595,30.97719877,69.24606751,3.530758285,-0.2620695455,5.613165636,4.877019545,-0.3060466364,0.05019245455,-31.01159227,49.90390082,0
1.221105,1.355187,0.526751,0.398193,0.227213,0.178701,0.721581,2.525531,1.745385,-1.247240492,-0.7180363828,-1.15395979,-1.146715046,-1.169388344,-1.266945348,-0.6786320627,-0.8273177901,-1.412906458,0.9975021856,1.114647035,2.076649793,0.1429339734,0.2221019666,0.05843750774,2.540817706,5.081635413,1.293855095,-0.277742,9.352229,5.775109,0.803119,0.485408,-0.126015,-26.15732,54.659778,-55.503185,-1.4557485,8.269995,3.917114,0.6651655,0.256639,-0.181143,-28.953446,45.3694185,-56.5504145,-2.260241,5.779897,1.043925,0.465159,-0.008615,-0.242663,-34.455501,40.588943,-59.692104,1.579641284,7.994780827,3.816564768,0.6633550205,0.3055960958,0.1860743325,29.69407476,46.44049292,57.22448343,0.2529834662,-0.6308389405,-0.1579086886,-0.3416954151,-0.2753543536,-0.1835647296,-0.5725372854,0.539084178,-0.4804235368,0.686170729,1.122164385,1.520742458,0.1201566033,0.1647687958,0.04140405626,2.544788173,4.455207175,1.495718067,0.4708302693,1.259252906,2.312657624,0.01443760933,0.02714875606,0.001714295874,6.475946843,19.84887097,2.237172537,-1.422826875,7.915634375,3.50050125,0.25737175,-0.181409375,-29.58482938,46.22629675,0
1.221105,1.355187,0.526751,0.398193,0.227213,0.178701,0.721581,2.525531,1.745385,-1.43373074,-0.3963910348,-1.450501778,-1.042589571,0.0541626676,-0.7417300968,-1.4372189,-1.545716426,-1.477477573,0.8306605102,0.07099588984,1.121745734,0.1788655794,0.08884049014,0.07896932457,4.546727358,4.011822269,2.070164891,-0.833225,9.127162,4.539638,-0.139388,0.17195,0.186912,-23.090599,49.789104,-56.201335,-2.059118,9.079276,3.476558,-0.726091,-0.40703,0.029783,-26.15732,42.392898,-57.94672,-2.61939,6.488617,2.202778,-0.846734,-0.488524,-0.12415,-31.027992,39.686965,-60.390254,2.006175717,8.464024445,3.511956425,0.6386096547,0.3914716981,0.1041005172,27.17797581,44.02007608,58.14242855,0.3717899635,-1.115379047,-0.09038219586,0.7076594438,1.357739307,0.1999078855,-0.1156180687,0.3766937424,-0.1916549444,0.6898085722,1.021469695,0.8574027267,0.2610625008,0.2439075963,0.1013891019,2.896229369,4.020833173,1.568903804,0.4758358663,1.043400338,0.7351394357,0.0681536293,0.05949091553,0.01027974999,8.388144561,16.16709941,2.461459147,-1.8838538,8.402161,3.4056862,-0.3062012,0.0236044,-27.0232164,43.8360582,0
1.221105,1.355187,0.526751,0.398193,0.227213,0.178701,0.721581,2.525531,1.745385,-1.391348911,-1.338275614,-0.7580746452,-0.8903987627,0.5064150557,-0.6795826693,-1.292344127,-1.508082092,1.526894733,2.278990896,3.25874485,1.490928513,0.1784712073,0.131088723,0.05290962537,3.744365277,10.43072189,0.2587748738,2.681643,9.09843,6.751993,0.877422,0.54826,-0.068223,-27.780876,63.318752,-57.772182,0.052675,6.115103,5.636238,0.665698,0.326682,-0.179545,-33.914318,52.67543,-59.517566,-2.183623,0.861956,1.680815,0.404438,-0.045101,-0.254647,-37.702617,43.294872,-60.390254,1.707398588,6.178692906,5.23796326,0.6984508274,0.3558805678,0.1776271696,33.35384797,53.73011026,59.38642806,0.1966095876,-0.3229399594,-0.7165071142,-0.3639831372,-0.7979951339,0.2562959415,0.2969829002,-0.05418120881,1.040410021,1.706716557,2.805367833,1.594403879,0.1452888191,0.1493738157,0.05060922385,3.412110782,7.000419479,0.6090738354,2.912881407,7.870088678,2.54212373,0.02110884097,0.02231253682,0.002561293539,11.64249999,49.00587289,0.370970937,0.04825484615,5.505102846,4.989402308,0.3230146154,-0.1702648462,-33.17885885,53.272121,0
1.221105,1.355187,0.526751,0.398193,0.227213,0.178701,0.721581,2.525531,1.745385,-1.376727542,-1.445440286,-1.406245374,-0.4588557693,-0.5472690981,-1.038520954,-1.029463794,-1.334023669,-0.746671362,2.594925274,4.316594135,1.242439933,0.2183502417,0.232959804,0.07541552705,6.017724508,8.95972622,1.293855095,2.432633,9.040966,6.933961,0.136253,0.010293,0.069198,-22.729808,62.777565,-56.375877,-0.258587,5.6338435,6.014541,-0.3724185,-0.2128835,-0.0419905,-31.929969,51.773452,-59.7793725,-2.815725,1.053502,1.862784,-0.593464,-0.774286,-0.146788,-37.883014,40.949733,-62.310176,1.852693552,6.201674524,5.334273177,0.3820101547,0.3663406194,0.07902446104,31.78960763,52.00554964,59.3376785,0.01960767656,-0.1448394141,-0.4865135291,0.6520756979,-0.6355424201,-0.002986561173,0.3114794497,-0.08477911983,0.2237040361,1.844009118,2.83893745,1.773354546,0.2082033538,0.2239510341,0.06691729386,4.84098093,7.424873636,1.678402874,3.400369627,8.059565846,3.144786347,0.04334863653,0.0501540657,0.004477924217,23.43509636,55.12874851,2.817036208,-0.17917525,5.513728417,5.030873083,-0.2899161667,-0.042035,-31.41884875,51.47279325,0
1.221105,1.355187,0.526751,0.398193,0.227213,0.178701,0.721581,2.525531,1.745385,-1.399801845,-0.8981593625,-1.202351734,-1.036988971,-0.8358716752,0.4132048141,-1.226922956,-1.32814173,-0.7560057049,2.122798752,2.087300807,2.11569857,0.2282214073,0.1587273935,0.03632523696,4.814181385,8.023638607,1.035084669,2.068696,8.978714,6.819034,0.919501,0.602057,0.005281,-24.714157,61.514797,-57.248565,-1.134909,7.479867,4.726395,0.765568,0.398322,-0.189133,-31.388782,51.051872,-58.993949,-2.571504,2.365592,1.383919,0.293649,0.211631,-0.297791,-38.424198,42.753688,-60.913871,1.785115417,6.999453298,4.71250199,0.7225894476,0.4107663273,0.1938665601,31.30960645,50.95555624,59.06718387,0.3048168195,-0.7034440111,-0.2879195686,-0.5604680742,0.1392094498,0.9906992784,-0.03714009609,0.2202006905,0.1267678098,1.643249377,2.211263537,1.711417871,0.2095722107,0.1141276687,0.08010500784,4.426000893,6.205499705,1.074052682,2.700268515,4.889686431,2.928951129,0.0439205115,0.01302512477,0.006416812281,19.5894839,38.50822659,1.153589164,-0.6974012727,6.640983364,4.390754364,0.3945932727,-0.176543,-30.99519273,50.57628382,0
1.221105,1.355187,0.526751,0.398193,0.227213,0.178701,0.721581,2.525531,1.745385,-1.351984577,-0.573844106,-1.443995641,-0.7522445898,-1.422024756,-0.4729150667,-0.8466226301,-1.489768839,0.7330254385,0.6496184707,0.6354195892,1.490928513,0.1468828844,0.1433290869,0.02783659795,3.476909025,5.349087216,1.035082445,-1.206739,8.935617,4.755127,-0.011554,-0.084783,-0.013894,-20.38467,51.051872,-60.739334,-2.411084,8.487878,3.0719175,-0.320752,-0.350171,-0.083803,-26.5181095,46.1811975,-61.8738325,-2.968961,6.914807,1.37913,-0.439531,-0.46855,-0.147587,-30.847597,41.671314,-68.593559,2.299742478,8.296718787,3.197959861,0.3260265546,0.3338401818,0.09515659495,26.25108095,46.31184642,63.00438336,0.4449066916,-0.8589551525,0.07169411195,0.7227183019,0.4691081986,0.3079973124,0.3124575007,0.03857135536,-1.52729834,0.6390747343,0.7132483828,1.204195485,0.1505344701,0.1446863227,0.04077451506,3.345293984,3.476219343,2.61354604,0.408416516,0.5087232556,1.450086766,0.02266062668,0.02093413197,0.001662561078,11.19099184,12.08410092,6.830622901,-2.2091625,8.266003833,2.962576667,-0.3008573333,-0.085978,-26.0370555,46.18119767,0
1.221105,1.355187,0.526751,0.398193,0.227213,0.178701,0.721581,2.525531,1.745385,-1.188553341,-1.312716128,-1.190198349,-0.8321837798,-0.7733157349,-0.4800250353,-1.391928805,-1.52071846,-0.4332967929,1.103996762,2.005655386,1.593873739,0.1352355614,0.1478695562,0.05685779508,4.546724393,7.756180132,1.682009993,0.339994,8.964348,5.827784,0.846263,0.642537,-0.013361,-24.714157,56.82452,-56.201335,-1.573071,7.458318,4.7168175,0.709374,0.323619,-0.156242,-29.314237,48.2557425,-60.9138715,-3.016848,4.209221,1.292935,0.286192,0.020147,-0.216564,-34.455501,42.212501,-62.310176,1.76835106,7.247501447,4.403884638,0.6542232387,0.3857429208,0.1563649406,29.57470787,49.13909789,60.28483552,0.2764931904,-0.4065443907,-0.5116790654,-0.7210716844,0.1136994965,0.8715949753,-0.06109356182,0.1455347073,0.9860227957,1.072556994,1.689065308,1.53600289,0.1762407291,0.1914888735,0.06684919712,3.169006245,5.31281767,2.030654256,1.150378505,2.852941615,2.359304877,0.03106079459,0.03666798869,0.004468815156,10.04260058,28.2260316,4.123556707,-1.405947,7.0479313,4.1273351,0.3348576,-0.1413548,-29.4044341,48.8510482,0
1.221105,1.355187,0.526751,0.398193,0.227213,0.178701,0.721581,2.525531,1.745385,-1.402842004,-1.379802685,-1.026802632,-0.5334706738,1.517515058,0.2459835156,-1.461254693,-1.418789861,-0.8847929127,2.733368446,3.954510056,1.664869629,0.1725482114,0.05902980733,0.04698662951,7.221272078,8.02363416,1.552631452,2.959384,8.897307,7.211703,0.040112,0.231872,-0.02721,-23.090599,62.957962,-57.772182,-0.8571675,5.772715,5.7439825,-0.318222,-0.3479075,-0.1430595,-30.2162125,54.0283925,-63.270137,-3.098255,0.445344,1.288146,-0.458706,-0.466154,-0.218161,-38.784992,43.655662,-65.975479,2.172925684,6.041206605,5.396353313,0.3192827323,0.3251837748,0.1434673358,30.96421131,53.36851107,62.39841517,0.3246570652,-0.2500377426,-0.6344687213,0.6364621782,1.519898177,0.5109316305,0.02792853644,-0.1378355663,0.6573526135,2.12247322,2.874808768,1.941701108,0.1445924465,0.182149291,0.04584681583,5.343332311,6.495164236,2.518246268,4.50489257,8.264525451,3.770203194,0.02090697557,0.03317836422,0.002101930521,28.55120019,42.18715846,6.341564266,-0.4655249286,5.313346571,5.034920643,-0.269381,-0.1359446429,-30.4996915,52.97179264,0
1.221105,1.355187,0.526751,0.398193,0.227213,0.178701,0.721581,2.525531,1.745385,-0.5054171911,-0.7958351515,-1.392825422,-1.499055496,-1.13833863,-0.8073899606,-1.070685726,-1.212615046,2.060076671,0.8271096779,1.128845916,2.673022087,0.2566510461,0.143526273,0.05725290857,3.476907543,4.947906916,0.7763120193,0.306473,8.906885,6.665797,0.853187,0.683018,0.018064,-23.451389,53.577404,-58.644874,-2.047147,8.0904205,3.4885295,0.585003,0.3225535,-0.1132315,-27.6004805,46.902778,-61.2629485,-2.686431,5.353708,1.518001,0.380469,0.210832,-0.187801,-33.733921,42.573291,-66.673637,2.003761384,7.695515391,4.179553709,0.6121531437,0.4261754786,0.1064495843,28.32028124,47.60888064,61.62569526,0.8743050743,-0.7236133574,0.1454299802,0.195618509,0.6970152776,0.2508962097,-0.4475030459,0.213759235,-1.377044505,0.9815319483,1.168477637,1.744936691,0.1691066135,0.1749115472,0.0584460612,3.331652969,3.736796074,1.958332498,0.9634049656,1.365339989,3.044804057,0.02859704674,0.03059404934,0.00341594207,11.0999115,13.9636449,3.835066173,-1.7468986,7.606288,3.7978764,0.3886277,-0.0889695,-28.1236274,47.4620045,0
0.110138,0.253799,0.153237,0.081227,0.088152,0.022371,0.721581,0.901978,1.221763,0.2189356533,-0.3520677249,-0.3117914685,-0.4791599569,-0.990345127,0.7152689557,1.474529618,0.08280392213,-0.6648821616,0.09939513533,0.1916915712,0.09939513533,0.07501967226,0.0604115926,0.01618853362,0.5349065718,0.8023650468,1.035078739,-2.777415,0.799704,7.182971,0.037226,0.040696,0.201636,-13.710043,53.216613,-71.037094,-2.997693,0.363937,6.929173,-0.063975,-0.050918,0.112153,-16.235576,51.773452,-72.957015,-3.194028,0.023943,6.819034,-0.200331,-0.134276,0.029327,-17.498344,49.969497,-73.655166,2.98902176,0.4211640731,6.959322276,0.08972142463,0.07544269786,0.1178605194,16.16343585,51.75788378,72.76590427,-0.0353537998,0.3504102485,0.9204179189,-0.3343865387,0.09549947512,-0.06557785535,0.9756902595,-0.3254728023,0.5374930386,0.09370679624,0.1956696103,0.1090358504,0.06288941427,0.0512454483,0.03893423289,0.8687172649,0.7650585652,0.7593380779,0.008780963662,0.0382865964,0.01188881668,0.003955078428,0.002626095971,0.001515874491,0.7546696863,0.5853146081,0.5765943166,-2.987552529,0.3729511765,6.958468059,-0.055367,0.111244,-16.140074,51.75222912,1
0.0706325,0.090984,0.263376,0.09094825,0.07117425,0.02743175,0.58628375,0.76668025,1.658108,1.375620506,0.9240574392,0.4067771442,2.439538438,1.93917659,2.130619163,-0.1375024489,-0.7044002026,-1.531314621,0.04969830897,0.08164542157,0.2165399844,0.06100389218,0.04461743116,0.02408635564,0.5349080544,0.534909537,1.423235119,-2.121371,0.933786,7.800706,0.054803,0.257215,0.14491,-16.055181,51.232265,-69.98986,-2.4206615,0.651256,7.1638165,-0.0309515,-0.0597065,0.114949,-17.859134,50.691082,-71.1243625,-2.58587,0.440556,6.723261,-0.530036,-0.103117,-0.068679,-18.941507,49.428314,-72.433403,2.405541193,0.6571469787,7.156062851,0.1889906168,0.0997064948,0.109128581,17.74110007,50.55870072,71.17287922,0.9821492302,0.4846360311,0.585428103,-1.971855832,1.75961922,-1.728038226,0.753710378,-0.5979298151,-0.07571752217,0.103758485,0.1112329359,0.2625137954,0.1648784446,0.09909010298,0.05572822516,0.7824352184,0.5430618964,0.833635988,0.01076582321,0.01237276604,0.06891349277,0.02718490149,0.009818848508,0.003105635079,0.612204871,0.2949162233,0.6949489604,-2.403302438,0.6476645625,7.151246188,-0.011069625,0.0938265,-17.72383781,50.55578406,1
0.138871,0.143659,0.229855,0.02823,0.034621,0.031959,1.623558,0.901973,0.523613,-1.12109802,0.6485621151,-0.9351933895,-0.6242216193,1.689179525,-0.8022609612,-1.366394574,-0.6989619201,-0.0952710232,0.1064953174,0.1206941988,0.2129906347,0.01974233114,0.03198269506,0.02684992618,1.337274584,0.8023591164,0.258770426,-1.374342,0.876322,7.637893,0.012192,0.113934,0.161156,-19.663087,52.495033,-68.942634,-1.546733,0.713508,7.340996,-0.030685,-0.042662,0.124936,-20.74546,51.051872,-69.640785,-1.680815,0.320839,7.058466,-0.068237,-0.125754,0.080461,-22.369018,49.969497,-70.164405,1.539577467,0.7080125264,7.331284019,0.03749482447,0.06870724312,0.1275781896,20.88921731,51.20900302,69.68180818,0.2908644686,-1.056131874,0.2415094143,0.1747291575,1.282314486,-0.4037088408,-0.258854477,0.01568063198,0.6336694186,0.09856569386,0.1473392935,0.1744220463,0.02327679969,0.05687730243,0.02276742458,0.8876663829,0.678108048,0.3222242308,0.009715196006,0.02170886742,0.03042305025,0.000541809404,0.003235027532,0.0005183556219,0.7879516073,0.4598305248,0.1038284549,-1.536419077,0.692512,7.329208846,-0.03854423077,0.1255302308,-20.87034854,51.20451308,1
0.186757,0.153237,0.186757,0.101735,0.059922,0.037551,0.721582,1.623558,0.349076,-0.7230377109,-0.9189169478,-0.4334154499,-1.257372631,-0.9188690817,-0.008156704143,-0.1671456182,-0.9246765061,2.021511782,0.1419932623,0.1916900886,0.1348930802,0.08094266812,0.0517250262,0.01855773197,0.5349110196,1.337274584,0.258770426,-0.99125,0.622524,7.652258,0.090757,0.046023,0.17314,-21.286645,54.659778,-70.338943,-1.340821,0.402246,7.355362,-0.025892,-0.039999,0.123072,-22.188623,52.855823,-70.862556,-1.680815,0.239432,7.216492,-0.118038,-0.143065,0.061552,-23.631784,50.871475,-72.258865,1.36233371,0.4129358031,7.37962786,0.06856109737,0.07328691358,0.1284361928,22.18484239,52.8260973,70.94468525,0.01578104887,0.5173736496,0.7027612616,0.2429350966,-0.1657158514,-0.3920209198,-0.7024775495,-0.1662487668,-1.438876333,0.1983289826,0.127777046,0.125025636,0.066803838,0.05865962051,0.02818778359,0.6692475974,1.121343429,0.4723975368,0.03933438535,0.01632697349,0.01563140966,0.004462752771,0.003440951078,0.000794551144,0.4478923466,1.257411086,0.2231594328,-1.34782,0.3926690769,7.378568692,-0.043932,0.1253048462,-22.17474554,52.81419454,1
0.380698,0.2202775,0.2514035,0.053264,0.048603,0.0450085,0.9019775,1.262768,0.610882,-1.131488931,0.1151788309,0.1652843254,1.882680374,5.61266399,4.539229414,-0.8228591454,-1.065845532,-0.1687553835,0.31238577,0.1135940168,0.1774912072,0.04540765815,0.03356166642,0.03514212039,0.8023620816,1.337274584,0.517540852,-1.307301,0.593792,7.484656,0.106736,0.000216,0.193913,-20.38467,55.200962,-70.513481,-1.589831,0.368726,7.297899,-0.030952,-0.029346,0.127333,-22.008226,53.938198,-71.560707,-2.025598,-0.172391,6.694529,-0.088743,-0.263974,-0.065483,-22.910203,52.495033,-72.60794,1.628774216,0.3601071439,7.208864077,0.05249892986,0.08013114808,0.1300797275,21.78012134,53.715975,71.5393622,-0.2760535788,-0.9986864101,-0.9460839006,1.228064033,-2.448134212,-1.994025649,0.4614769533,0.1900387145,0.01877871879,0.2205413646,0.2037886196,0.2156661758,0.04625783717,0.06434463177,0.05659230076,0.7354780249,0.8213216526,0.5250343137,0.04863849351,0.04152980148,0.04651189939,0.002139787499,0.004140231638,0.003202688506,0.5409279251,0.674569257,0.2756610305,-1.613774133,0.2968962,7.205637333,-0.0477574,0.1171240667,-21.76769987,53.7096956,1
0.169997,0.1723915,0.3423885,0.05393,0.0533975,0.0371515,1.443163,0.9019755,0.959961,15.45819189,16.99782782,5.138346756,4.795131154,8.819011145,0.9314093786,7.502789415,0.2885498887,-0.01929610378,0.1277943808,0.1348945629,0.2413883976,0.03593086477,0.0386959179,0.02882475233,1.337273101,0.802360599,0.7763097954,0.158025,3.888382,7.872536,0.62861,1.795232,0.125052,-6.313836,44.55764,-46.950805,-0.330417,1.613774,7.374517,0.008883,0.029263,0.020388,-12.808067,43.294872,-47.998035,-7.757609,1.292935,2.997693,-0.119217,-0.043176,-0.069362,-14.61202,40.949733,-50.092494,1.647194491,1.749924122,7.078436399,0.1686546387,0.452270643,0.04187306684,12.67497291,43.20359042,48.14601853,-4.013209956,4.06980533,-2.539122782,2.298991867,3.247174586,0.3310793861,2.301151256,-0.7128277521,-0.5162762864,1.508590531,0.4565128326,1.167482454,0.1571397091,0.4261503958,0.03897447615,1.541370691,0.8787380691,0.7451164396,2.275845391,0.2084039663,1.36301528,0.02469288818,0.1816041598,0.001519009791,2.375823606,0.7721805941,0.5551985085,-0.6613654815,1.689328407,6.981493148,0.1514746667,0.0153082963,-12.58090278,43.19465296,1
0.15802525,0.2107005,0.1879545,0.05046775,0.01984025,0.03835025,1.262767,1.53335975,0.82905425,-0.9625666581,0.3036400249,0.007025663266,-1.199892024,1.129359996,-0.7838371389,-0.3218290204,-1.131908184,-0.1846035242,0.1100446671,0.1703917665,0.1348938215,0.03731339133,0.01539904794,0.0300086102,0.8023635642,0.9360920604,0.6469245824,1.465326,2.743895,7.340996,0.042439,0.083859,0.067793,-12.627672,42.212501,-43.460041,1.25702,2.344043,7.190154,-0.0031015,0.02407,0.0189235,-14.61202,40.3183495,-45.5545,1.0966,1.977711,6.819034,-0.06036,-0.056492,-0.023288,-16.055181,39.326175,-47.125343,1.261369193,2.329944625,7.153070664,0.03361326215,0.03529829772,0.03016606146,14.54673138,40.58080424,45.47669324,0.1229958691,0.2298654992,-0.9568331216,-0.2090500138,-0.6775145003,0.1251793875,0.1200551161,0.4190335741,0.3116878485,0.1046569909,0.170591995,0.1447761317,0.03261735455,0.02964797061,0.0232314058,0.8509226421,0.8963671391,0.9276834743,0.01095308574,0.02910162876,0.0209601283,0.001063891818,0.0008790021612,0.0005396982153,0.7240693428,0.803474048,0.8605966285,1.25701995,2.3236911,7.1516054,0.0191564,0.019243,-14.52182235,40.57090335,1
0.4070345,0.385486,0.2418265,0.0487365,0.0503345,0.0379505,0.811778,0.6313825,1.832653,-0.81505122,-0.1861554968,-0.1268995625,2.878439896,3.303292834,-0.6441655279,0.8913921881,0.3395626237,-0.7464525242,0.2839865245,0.1703910252,0.2058904527,0.0386959179,0.02290175647,0.01658438842,0.8023635642,0.5349080544,1.552624039,1.680815,3.155719,7.542119,0.109286,0.203703,0.05208,-12.266881,41.490921,-42.587348,1.178007,2.571504,7.144662,-0.020678,0.047373,-0.012369,-12.988463,39.867362,-45.030883,0.641679,2.073484,6.93875,-0.076073,0.005294,-0.060041,-15.333601,38.243804,-47.474422,1.163419818,2.539974371,7.148409095,0.04199286489,0.07582853681,0.03088166817,13.29435441,39.82710758,44.97612566,-0.1165774188,0.3111758469,0.735131752,1.339556415,1.703892581,0.3962642228,-0.9333371135,0.2993416116,-0.2458228506,0.2923542613,0.2718795367,0.1573043185,0.03918959584,0.04346826436,0.03077905702,0.7479583315,0.758252324,1.297893946,0.08547101411,0.07391848249,0.02474464862,0.001535824422,0.001889490007,0.0009473503509,0.5594416656,0.5749465869,1.684528695,1.126088211,2.525381421,7.146678105,0.06213273684,-0.002515368421,-13.27329716,39.81988889,1
0.21069975,0.2035175,0.251403,0.08222575,0.034355,0.03342325,1.48826075,1.443161,1.221768,-0.7467158251,-0.02348157463,0.3646220335,1.319826691,11.90934575,2.762543725,-0.5445553928,-0.5324193666,-0.2224988938,0.1348930802,0.1384431713,0.1526420527,0.04619714383,0.02803378405,0.02467791393,1.069819074,1.069817591,0.9056979736,1.039137,2.729529,7.475079,0.068273,0.068945,0.126384,-12.086486,43.294872,-44.856346,0.6536505,2.2770015,7.211703,0.0074185,0.0167465,0.006007,-14.070835,41.13013,-46.514461,0.430978,1.810109,6.665797,-0.21456,-0.215485,-0.070161,-16.055181,39.326175,-48.696189,0.7195780818,2.255228209,7.181810991,0.06507352811,0.05047059099,0.03628386655,14.09196363,41.25889424,46.61050713,0.4649506482,-0.05918857963,-0.7293587552,-1.183054682,-3.137352815,0.9141528352,-0.2498495735,0.1794591924,-0.3602628833,0.165278403,0.2088849765,0.1868651802,0.06269965713,0.04974318376,0.03561601475,0.9785252892,1.027523248,0.9045251999,0.02731695048,0.0436329334,0.03491859556,0.003931247004,0.002474384331,0.001268500506,0.9575117416,1.055804025,0.8181658373,0.7003396786,2.245533643,7.179379536,0.008537928571,0.006929535714,-14.05794889,41.24609739,1
0.1711945,0.0933785,0.19992625,0.0664465,0.047871,0.0256995,0.67648175,0.94707725,0.523617,-0.9321717598,3.74681651,1.300957806,0.8666830421,-0.7329279272,-0.3829551277,1.393960568,0.6554981727,-0.7987423336,0.1171448491,0.0887456036,0.1703917665,0.05192221229,0.03395677991,0.01954514505,0.4011802995,0.6686335854,0.5175452998,1.120543,2.657699,7.427192,0.066675,0.078,0.054743,-14.070835,44.55764,-45.5545,0.8691395,2.17644,7.2140975,0.0058205,0.0171455,0.008271,-15.964984,42.032104,-46.427192,0.699142,2.001655,6.680163,-0.132799,-0.035453,-0.02968,-17.498344,40.047756,-47.299884,0.8960750216,2.192345563,7.200417121,0.04757143543,0.03715923324,0.02326936055,16.03106619,42.14464785,46.39134388,0.3472243014,1.695632831,-1.148094203,-0.9841538573,0.1616560523,0.2603275692,0.4712008748,0.4891920477,-0.1402582397,0.1217750975,0.1439627335,0.1812689832,0.04752059904,0.03058008063,0.02083012184,0.7154300905,1.019091076,0.5221767394,0.01482917436,0.02072526864,0.03285844426,0.002258207333,0.0009351413311,0.0004338939759,0.5118402144,1.03854662,0.2726685471,0.8877619444,2.187613722,7.198135056,0.02111083333,0.01037155556,-16.01509422,42.13232483,1
0.287319,0.545906,0.608159,0.100403,0.066314,0.029561,0.901978,2.164745,1.221768,4.114655288,3.832430185,0.08160708175,1.71870922,2.058130651,8.591087043,2.767215216,1.663711896,1.098158303,0.2413883976,0.4188796048,0.4046807233,0.06159619177,0.06159619177,0.02053107552,0.8023665294,1.604731576,1.035084669,3.208394,6.072005,7.513388,0.71257,0.359173,0.099825,-31.749572,63.318752,-56.89949,2.51404,1.575465,6.981848,0.219079,0.041453,-0.121487,-37.161434,59.530448,-58.993949,-0.138871,0.397458,5.535676,-0.53008,-0.469882,-0.169958,-38.965385,52.31464,-61.961101,2.420600221,2.12768513,6.846141915,0.3214653648,0.161352329,0.1228076107,36.88594186,59.53614986,59.08173923,-2.096473435,1.853589969,-0.81794547,-1.168387322,-1.086544942,2.676337956,1.504690871,-1.016932733,-0.3695088823,0.6745475859,1.151252194,0.4416504593,0.2637593905,0.1613356967,0.04782089965,1.43954979,2.32201413,0.903313673,0.4550144456,1.325381614,0.1950551282,0.06956901608,0.02602920704,0.002286838443,2.072303597,5.391749618,0.8159755918,2.324713098,1.789318976,6.831881439,0.002316682927,-0.1131144146,-36.85784046,59.49085132,1
0.407035,0.3926695,0.2657695,0.060721,0.0721725,0.0238355,1.443165,1.8941535,1.2217695,3.154396531,3.420407608,3.47689086,1.970742935,2.467941277,5.584157129,1.535406034,2.366829162,0.5764999426,0.2342896982,0.3265846515,0.1987917533,0.04619788513,0.05014605484,0.01658290581,1.069817591,1.337268653,1.035086152,3.136564,4.089505,7.518177,0.783145,0.441199,-0.014959,-33.733921,65.844284,-56.375877,2.873188,0.450133,7.001002,0.211089,0.040387,-0.124683,-38.243804,63.318752,-58.993949,0.521963,0.090984,5.84215,-0.372951,-0.256027,-0.159305,-39.867362,56.82452,-63.182868,2.682635365,1.243099648,6.946632065,0.2835968876,0.1386359185,0.1239137114,37.92501628,62.96822517,59.24237778,-1.932625945,2.082510738,-1.578704067,-0.2660532684,0.6758940423,1.973378302,1.19856582,-1.337741253,-0.6758586035,0.6088193027,0.9470492759,0.3039782356,0.2132831663,0.1341399243,0.02575636272,1.334909661,1.743447363,1.364237668,0.3706609433,0.896902331,0.09240276774,0.04548970904,0.01799351929,0.0006633902204,1.781983802,3.039608706,1.861144414,2.612636897,0.8052294103,6.939977974,0.03501997436,-0.1212073333,-37.90151549,62.94408449,1
0.34598,0.36034575,0.2573895,0.04101325,0.0631845,0.024368,1.12747025,1.7137555,1.396309,3.858003815,3.881365175,1.400818002,2.737146665,4.702008655,2.042035792,4.330169987,4.393344797,3.20590852,0.2094398024,0.145542612,0.1810420395,0.02842889754,0.0471838156,0.01816261848,0.8023665294,1.203544605,0.7763157258,3.342476,5.214837,7.230857,0.90219,0.398854,0.007678,-31.929969,64.58152,-56.724952,3.0000875,0.782944,6.957905,0.205497,0.042252,-0.1216205,-38.063407,62.8677635,-57.772182,-0.043098,0.627313,5.84215,-0.487735,-0.539391,-0.213634,-40.047756,51.773452,-62.310176,2.81845621,1.722162978,6.843640638,0.3111512603,0.1570772193,0.1229578066,37.83538573,61.98736867,58.11639769,-2.116280158,2.217199264,-1.553672344,-0.02779778927,-1.281134716,0.8709064721,2.0229083,-2.165584991,-1.658408551,0.7410194597,1.139836313,0.3495896737,0.2451437236,0.1547742277,0.03903640991,1.612337403,2.59594142,1.131026195,0.5491098396,1.29922682,0.12221294,0.06009544522,0.02395506155,0.001523841299,2.5996319,6.738911856,1.279220253,2.719298727,1.290975795,6.834705864,0.02679909091,-0.1165966591,-37.80101561,61.93298768,1
1.640112,1.8627835,0.38548625,0.34581625,0.2519395,0.0219715,2.34513725,2.2549405,2.443535,-0.318732374,0.2024300421,-0.5823187514,-0.6091875128,-0.5574953328,4.590296584,0.6194780151,0.5708354511,-0.633424973,0.9194061138,0.8839074275,0.3088349377,0.2532936934,0.1903164577,0.01954514505,1.470999374,1.872182638,1.940779678,3.141353,5.095121,7.484656,0.558371,0.321888,-0.046119,-31.388782,64.58152,-57.772182,2.4541815,0.4788645,6.950722,0.2153505,0.0586305,-0.1238845,-37.161434,61.9657875,-61.00114,-0.368726,-0.330417,6.297071,-0.458173,-0.365484,-0.267164,-38.784992,55.200962,-64.40464,2.362534147,1.907499521,6.930152417,0.3286150105,0.1834486076,0.1304186299,36.58442906,61.34486219,60.77360752,-0.8637203096,1.103724985,-0.3064518809,-0.6711550572,-0.3839196803,-1.459510171,0.989356367,-1.166086468,-0.1527335457,0.9741973027,1.488755398,0.314424052,0.2936351062,0.1806900225,0.03892634236,1.741958387,2.454284613,1.627937685,0.9490603846,2.216392634,0.09886248446,0.08622157558,0.03264888425,0.001515260129,3.034419021,6.023512961,2.650181105,2.152326,1.19254425,6.923015964,0.03169396429,-0.1244739286,-36.54293407,61.29574704,1
0.71111375,0.89787125,0.25379825,0.06005525,0.0900825,0.02090625,1.8941525,1.8941505,2.007191,1.962454738,2.254390365,3.6763434,1.178666953,1.545448607,4.421398832,0.2462718546,2.023696169,1.901008204,0.2520386706,0.2839865245,0.1597422347,0.03928747619,0.06771637373,0.01362214918,1.203545346,1.471000115,1.423237343,3.912325,5.353708,7.273955,0.799391,0.51204,-0.02721,-33.733921,63.499145,-54.281414,3.5771195,0.4405555,6.7639645,0.21828,0.0329305,-0.125615,-38.5143965,60.793216,-56.375877,-0.004789,-0.090984,5.449481,-0.444591,-0.420346,-0.218161,-40.228153,53.577404,-64.230102,3.274225256,1.650184453,6.698538166,0.3286788882,0.1798779306,0.1272166039,37.9989412,60.42563383,57.02430674,-1.759219848,1.805321425,-1.519318181,-0.3909473978,-0.2563463122,-0.1385784184,1.035276252,-1.428571954,-1.328118598,1.003523204,1.303330096,0.323544849,0.2493884761,0.1768973631,0.02821817017,1.605442102,2.032902206,2.069017254,1.00705882,1.69866934,0.1046812693,0.06219461199,0.03129267708,0.0007962651278,2.577444344,4.13269138,4.280832398,3.116647591,1.012145932,6.690719864,0.03260970455,-0.1240475682,-37.96501136,60.39142764,1
1.221105,1.355187,0.526751,0.398193,0.227213,0.178701,0.721581,2.525531,1.745385,-0.5455052206,-1.044211327,-1.020999585,-1.571766141,-0.686518592,-1.470011093,0.2255358908,-0.5922419671,0.04928370039,0.6744683664,1.192741624,0.6815670659,0.3174577522,0.3329183282,0.1579386491,0.802360599,3.476906802,1.552625521,2.068696,3.184451,7.441558,-0.008358,0.081933,-0.071874,-22.729808,61.695194,-61.262947,1.613774,1.173219,6.747204,-0.22248,-0.167342,-0.28847,-35.177085,59.350055,-62.484718,-1.039137,0.24901,5.923557,-0.594795,-0.558034,-0.394998,-35.718269,51.953849,-71.560707,1.581134457,1.782024349,6.662681,0.356402384,0.2750609976,0.2697209101,33.10487267,58.00235033,64.23754545,-0.9944321933,0.553909133,0.1454012203,-0.2326317172,-0.7518490517,0.2311643252,1.481915362,-0.815403148,-1.355125893,1.155407102,1.047867276,0.5141713278,0.226010992,0.2297446297,0.1190856855,5.009145871,3.326324261,3.794512052,1.334965572,1.098025828,0.2643721544,0.05108096849,0.05278259488,0.01418140049,25.09154235,11.06443309,14.39832171,1.0793612,1.441383,6.6428116,-0.151248,-0.2420082,-32.7237078,57.9068926,1
0.1711945,0.0933785,0.19992625,0.0664465,0.047871,0.0256995,0.67648175,0.94707725,0.523617,-0.4466849543,0.6079646452,2.029797277,-0.222633008,1.812240152,-0.332668135,-1.165179551,0.8048965461,-1.039595054,0.03904803593,0.1171448491,0.07454672215,0.03178476766,0.03691827784,0.01954514505,0.8023635642,0.6686395158,0.9056972323,-8.384922,4.467808,0.440556,0.102095,0.176538,0.066994,5.953045,38.063407,-36.827583,-8.4735125,4.3480915,-0.143659,0.013011,0.022339,0.0112,4.9608705,36.5300495,-38.485698,-8.53337,3.888382,-0.239432,-0.047577,-0.031724,-0.016897,3.788301,34.455501,-39.620197,8.47210792,4.297404983,0.1949940664,0.04175470679,0.05890858443,0.03076100545,4.937034166,36.49372876,38.21013956,0.2164670469,-1.21188591,1.666256049,0.3532033928,1.341747917,0.9122434206,-0.1706251085,-0.5226568814,0.1528268295,0.03953226496,0.1574730393,0.1777331763,0.03756930896,0.05129648863,0.0256526631,0.6562616193,0.8004250292,0.7851193518,0.001562799973,0.02479775812,0.03158908195,0.001411452976,0.002631329746,0.0006580591242,0.430679313,0.6406802274,0.6164123966,-8.472015688,4.294518813,-0.08020975,0.028963625,0.016975875,4.893222563,36.48494975,2
0.1711945,0.0933785,0.19992625,0.0664465,0.047871,0.0256995,0.67648175,0.94707725,0.523617,-0.4466849543,0.6079646452,2.029797277,-0.222633008,1.812240152,-0.332668135,-1.165179551,0.8048965461,-1.039595054,0.03904803593,0.1171448491,0.07454672215,0.03178476766,0.03691827784,0.01954514505,0.8023635642,0.6686395158,0.9056972323,-8.384922,4.467808,0.440556,0.102095,0.176538,0.066994,5.953045,38.063407,-36.827583,-8.4735125,4.3480915,-0.143659,0.013011,0.022339,0.0112,4.9608705,36.5300495,-38.485698,-8.53337,3.888382,-0.239432,-0.047577,-0.031724,-0.016897,3.788301,34.455501,-39.620197,8.47210792,4.297404983,0.1949940664,0.04175470679,0.05890858443,0.03076100545,4.937034166,36.49372876,38.21013956,0.2164670469,-1.21188591,1.666256049,0.3532033928,1.341747917,0.9122434206,-0.1706251085,-0.5226568814,0.1528268295,0.03953226496,0.1574730393,0.1777331763,0.03756930896,0.05129648863,0.0256526631,0.6562616193,0.8004250292,0.7851193518,0.001562799973,0.02479775812,0.03158908195,0.001411452976,0.002631329746,0.0006580591242,0.430679313,0.6406802274,0.6164123966,-8.472015688,4.294518813,-0.08020975,0.028963625,0.016975875,4.893222563,36.48494975,2
0.1711945,0.0933785,0.19992625,0.0664465,0.047871,0.0256995,0.67648175,0.94707725,0.523617,-0.4466849543,0.6079646452,2.029797277,-0.222633008,1.812240152,-0.332668135,-1.165179551,0.8048965461,-1.039595054,0.03904803593,0.1171448491,0.07454672215,0.03178476766,0.03691827784,0.01954514505,0.8023635642,0.6686395158,0.9056972323,-8.384922,4.467808,0.440556,0.102095,0.176538,0.066994,5.953045,38.063407,-36.827583,-8.4735125,4.3480915,-0.143659,0.013011,0.022339,0.0112,4.9608705,36.5300495,-38.485698,-8.53337,3.888382,-0.239432,-0.047577,-0.031724,-0.016897,3.788301,34.455501,-39.620197,8.47210792,4.297404983,0.1949940664,0.04175470679,0.05890858443,0.03076100545,4.937034166,36.49372876,38.21013956,0.2164670469,-1.21188591,1.666256049,0.3532033928,1.341747917,0.9122434206,-0.1706251085,-0.5226568814,0.1528268295,0.03953226496,0.1574730393,0.1777331763,0.03756930896,0.05129648863,0.0256526631,0.6562616193,0.8004250292,0.7851193518,0.001562799973,0.02479775812,0.03158908195,0.001411452976,0.002631329746,0.0006580591242,0.430679313,0.6406802274,0.6164123966,-8.472015688,4.294518813,-0.08020975,0.028963625,0.016975875,4.893222563,36.48494975,2
0.1711945,0.0933785,0.19992625,0.0664465,0.047871,0.0256995,0.67648175,0.94707725,0.523617,-0.4466849543,0.6079646452,2.029797277,-0.222633008,1.812240152,-0.332668135,-1.165179551,0.8048965461,-1.039595054,0.03904803593,0.1171448491,0.07454672215,0.03178476766,0.03691827784,0.01954514505,0.8023635642,0.6686395158,0.9056972323,-8.384922,4.467808,0.440556,0.102095,0.176538,0.066994,5.953045,38.063407,-36.827583,-8.4735125,4.3480915,-0.143659,0.013011,0.022339,0.0112,4.9608705,36.5300495,-38.485698,-8.53337,3.888382,-0.239432,-0.047577,-0.031724,-0.016897,3.788301,34.455501,-39.620197,8.47210792,4.297404983,0.1949940664,0.04175470679,0.05890858443,0.03076100545,4.937034166,36.49372876,38.21013956,0.2164670469,-1.21188591,1.666256049,0.3532033928,1.341747917,0.9122434206,-0.1706251085,-0.5226568814,0.1528268295,0.03953226496,0.1574730393,0.1777331763,0.03756930896,0.05129648863,0.0256526631,0.6562616193,0.8004250292,0.7851193518,0.001562799973,0.02479775812,0.03158908195,0.001411452976,0.002631329746,0.0006580591242,0.430679313,0.6406802274,0.6164123966,-8.472015688,4.294518813,-0.08020975,0.028963625,0.016975875,4.893222563,36.48494975,2
0.1711945,0.0933785,0.19992625,0.0664465,0.047871,0.0256995,0.67648175,0.94707725,0.523617,-0.4466849543,0.6079646452,2.029797277,-0.222633008,1.812240152,-0.332668135,-1.165179551,0.8048965461,-1.039595054,0.03904803593,0.1171448491,0.07454672215,0.03178476766,0.03691827784,0.01954514505,0.8023635642,0.6686395158,0.9056972323,-8.384922,4.467808,0.440556,0.102095,0.176538,0.066994,5.953045,38.063407,-36.827583,-8.4735125,4.3480915,-0.143659,0.013011,0.022339,0.0112,4.9608705,36.5300495,-38.485698,-8.53337,3.888382,-0.239432,-0.047577,-0.031724,-0.016897,3.788301,34.455501,-39.620197,8.47210792,4.297404983,0.1949940664,0.04175470679,0.05890858443,0.03076100545,4.937034166,36.49372876,38.21013956,0.2164670469,-1.21188591,1.666256049,0.3532033928,1.341747917,0.9122434206,-0.1706251085,-0.5226568814,0.1528268295,0.03953226496,0.1574730393,0.1777331763,0.03756930896,0.05129648863,0.0256526631,0.6562616193,0.8004250292,0.7851193518,0.001562799973,0.02479775812,0.03158908195,0.001411452976,0.002631329746,0.0006580591242,0.430679313,0.6406802274,0.6164123966,-8.472015688,4.294518813,-0.08020975,0.028963625,0.016975875,4.893222563,36.48494975,2
1.221105,1.355187,0.526751,0.398193,0.227213,0.178701,0.721581,2.525531,1.745385,-0.7132624452,-0.8682958127,1.429511961,0.643532302,0.349720288,6.405484853,1.088149037,-0.02515601815,0.7238012118,0.6922165976,0.7099663114,0.4011313736,0.1010808541,0.1034493111,0.02408561434,2.273362196,2.808270992,1.164467658,3.136564,9.213358,7.518177,0.877422,0.54826,0.186912,-20.204273,65.844284,-56.201335,2.605024,0.6249185,6.8693145,0.21322,0.045181,-0.1249495,-37.4320255,62.3265775,-59.168487,-2.648122,0.090984,0.268164,-0.846734,-0.488524,-0.254647,-39.867362,37.161434,-63.182868,2.4297393,4.416924567,6.225780786,0.4311488584,0.2268358435,0.1344775002,35.58726405,58.67916575,59.20154504,-0.9355830506,0.9012485486,-1.589001172,-0.6137212154,-0.158344809,1.824480134,1.415501112,-1.198078276,-0.5455504479,1.973755267,3.353527476,1.747040853,0.3844440602,0.2213158669,0.06714061306,4.737614723,8.154219998,1.43824996,3.895709854,11.24614653,3.052151742,0.1477972355,0.04898071295,0.004507861922,22.44499327,66.49130378,2.068562949,1.417012071,2.874556679,5.975633411,0.04973717857,-0.1165175357,-35.27050282,58.10983729,2
1.221105,1.355187,0.526751,0.398193,0.227213,0.178701,0.721581,2.525531,1.745385,-0.7132624452,-0.8682958127,1.429511961,0.643532302,0.349720288,6.405484853,1.088149037,-0.02515601815,0.7238012118,0.6922165976,0.7099663114,0.4011313736,0.1010808541,0.1034493111,0.02408561434,2.273362196,2.808270992,1.164467658,3.136564,9.213358,7.518177,0.877422,0.54826,0.186912,-20.204273,65.844284,-56.201335,2.605024,0.6249185,6.8693145,0.21322,0.045181,-0.1249495,-37.4320255,62.3265775,-59.168487,-2.648122,0.090984,0.268164,-0.846734,-0.488524,-0.254647,-39.867362,37.161434,-63.182868,2.4297393,4.416924567,6.225780786,0.4311488584,0.2268358435,0.1344775002,35.58726405,58.67916575,59.20154504,-0.9355830506,0.9012485486,-1.589001172,-0.6137212154,-0.158344809,1.824480134,1.415501112,-1.198078276,-0.5455504479,1.973755267,3.353527476,1.747040853,0.3844440602,0.2213158669,0.06714061306,4.737614723,8.154219998,1.43824996,3.895709854,11.24614653,3.052151742,0.1477972355,0.04898071295,0.004507861922,22.44499327,66.49130378,2.068562949,1.417012071,2.874556679,5.975633411,0.04973717857,-0.1165175357,-35.27050282,58.10983729,2
1.221105,1.355187,0.526751,0.398193,0.227213,0.178701,0.721581,2.525531,1.745385,-0.7132624452,-0.8682958127,1.429511961,0.643532302,0.349720288,6.405484853,1.088149037,-0.02515601815,0.7238012118,0.6922165976,0.7099663114,0.4011313736,0.1010808541,0.1034493111,0.02408561434,2.273362196,2.808270992,1.164467658,3.136564,9.213358,7.518177,0.877422,0.54826,0.186912,-20.204273,65.844284,-56.201335,2.605024,0.6249185,6.8693145,0.21322,0.045181,-0.1249495,-37.4320255,62.3265775,-59.168487,-2.648122,0.090984,0.268164,-0.846734,-0.488524,-0.254647,-39.867362,37.161434,-63.182868,2.4297393,4.416924567,6.225780786,0.4311488584,0.2268358435,0.1344775002,35.58726405,58.67916575,59.20154504,-0.9355830506,0.9012485486,-1.589001172,-0.6137212154,-0.158344809,1.824480134,1.415501112,-1.198078276,-0.5455504479,1.973755267,3.353527476,1.747040853,0.3844440602,0.2213158669,0.06714061306,4.737614723,8.154219998,1.43824996,3.895709854,11.24614653,3.052151742,0.1477972355,0.04898071295,0.004507861922,22.44499327,66.49130378,2.068562949,1.417012071,2.874556679,5.975633411,0.04973717857,-0.1165175357,-35.27050282,58.10983729,2
1.221105,1.355187,0.526751,0.398193,0.227213,0.178701,0.721581,2.525531,1.745385,-0.7132624452,-0.8682958127,1.429511961,0.643532302,0.349720288,6.405484853,1.088149037,-0.02515601815,0.7238012118,0.6922165976,0.7099663114,0.4011313736,0.1010808541,0.1034493111,0.02408561434,2.273362196,2.808270992,1.164467658,3.136564,9.213358,7.518177,0.877422,0.54826,0.186912,-20.204273,65.844284,-56.201335,2.605024,0.6249185,6.8693145,0.21322,0.045181,-0.1249495,-37.4320255,62.3265775,-59.168487,-2.648122,0.090984,0.268164,-0.846734,-0.488524,-0.254647,-39.867362,37.161434,-63.182868,2.4297393,4.416924567,6.225780786,0.4311488584,0.2268358435,0.1344775002,35.58726405,58.67916575,59.20154504,-0.9355830506,0.9012485486,-1.589001172,-0.6137212154,-0.158344809,1.824480134,1.415501112,-1.198078276,-0.5455504479,1.973755267,3.353527476,1.747040853,0.3844440602,0.2213158669,0.06714061306,4.737614723,8.154219998,1.43824996,3.895709854,11.24614653,3.052151742,0.1477972355,0.04898071295,0.004507861922,22.44499327,66.49130378,2.068562949,1.417012071,2.874556679,5.975633411,0.04973717857,-0.1165175357,-35.27050282,58.10983729,2
0.684776,0.253798,0.191546,0.046339,0.062585,0.022105,2.345139,0.901978,1.221764,-1.401167444,-1.482143694,-0.4079814759,-1.364941608,0.8477633377,-0.3615742928,-1.516542135,-1.256211906,0.4521487948,2.804365818,2.18669446,1.391533377,0.2584272036,0.1591232483,0.1295097516,9.76208756,3.878087842,0.6469245824,-1.431806,5.219625,5.492578,0.708886,1.245529,0.757713,-3.427511,50.871475,-66.848175,-6.5053775,3.7375395,4.221193,0.3244525,1.0748175,0.4904605,-11.815893,48.2557445,-70.426212,-8.63872,0.536328,1.259414,0.052673,-0.048255,0.138518,-20.925855,41.310523,-71.909782,6.315400018,3.796380728,4.230983766,0.4625538366,1.004681606,0.5141416104,14.14368965,47.49064099,70.21167572,0.4351773717,-0.345081391,-0.8423500304,0.1951392285,-1.592121529,-0.4221548476,-0.05222835299,-0.4796980254,1.278339291,2.698891328,1.811906033,1.42175099,0.2420949709,0.4372346348,0.1875894996,6.546427345,3.603017135,1.597816696,7.284014399,3.283003472,2.021375877,0.05860997493,0.1911741259,0.03518982034,42.85571098,12.98173248,2.553018194,-5.709664,3.336091,3.984952667,0.9045501667,0.478698,-12.53747367,47.353767,0
0.684776,0.253798,0.191546,0.046339,0.062585,0.022105,2.345139,0.901978,1.221764,-1.378702687,-1.093215379,-1.275072622,-1.105177815,-0.3740957855,-0.05987453413,-1.531975501,-0.7134398219,-1.388430578,3.354589895,1.245990024,2.222193146,0.3484522929,0.4357130704,0.1115443192,8.959724737,0.8023657881,1.164475813,-1.484481,5.377651,5.435115,0.397291,-0.320434,0.047437,1.443162,45.459617,-65.10279,-6.984242,4.2858395,3.7016245,-0.124164,-1.34803,-0.36456,-5.682452,44.467443,-69.466247,-9.644336,2.121371,1.259414,-0.558532,-2.035802,-0.588003,-15.513997,42.753688,-70.338943,6.854285468,4.160777528,3.895221505,0.333107344,1.459377163,0.3798545958,9.228414757,44.26527352,68.45084657,0.4145676428,-0.4770643655,-0.2280929371,0.1661659323,0.6928938224,0.7912637823,-0.1856055226,-0.4598400643,0.6526188409,2.993231185,1.113922126,1.496516852,0.3155943364,0.5465238297,0.1928970646,6.372832965,0.8567459864,2.087176029,8.959432924,1.240822502,2.239562689,0.09959978514,0.2986882964,0.03720927753,40.61300001,0.7340136853,4.356303774,-6.166181667,4.008896,3.596274167,-1.353179,-0.3272311667,-6.6746265,44.25698167,0
0.684776,0.253798,0.191546,0.046339,0.062585,0.022105,2.345139,0.901978,1.221764,-1.422901028,-1.308645057,-0.5105153289,-1.591750153,-0.7073751481,-1.522890338,-1.594282938,-1.497312653,-0.4639401781,3.567579047,2.11214922,1.253089465,0.3437146375,0.4193273507,0.2072952183,7.622453119,0.9360883539,0.6469245824,-1.896304,6.072005,5.784686,0.404482,1.935831,0.851191,-2.345139,47.624359,-68.244483,-6.198904,3.4478265,4.24753,0.134699,1.1995885,0.5268135,-10.9139165,46.8125815,-69.2044405,-9.155895,0.684777,1.91067,-0.24747,0.3712,0.377674,-17.317949,42.753688,-70.862556,6.362139136,3.930168132,4.51106074,0.2681205138,1.253927448,0.6173978135,11.77301129,45.71748744,69.38371768,0.223162576,-0.0748585964,-0.6293950146,-0.1900819615,-0.03815061514,0.4156305501,0.1444116768,-0.6479531719,-0.5584895368,2.599072576,1.839008247,1.295765505,0.2518589259,0.4854773106,0.1930967786,5.568685679,2.081505272,0.8108671305,6.755178254,3.381951332,1.679008243,0.06343291855,0.2356882191,0.03728636591,31.01026019,4.332664197,0.6575055033,-5.807033333,3.473365833,4.320956,1.156134,0.5864245,-10.37273033,45.67007767,0
0.684776,0.253798,0.191546,0.046339,0.062585,0.022105,2.345139,0.901978,1.221764,-0.8355791416,-1.405040606,-1.332330423,-1.405910794,-0.9477079814,-1.047799344,-1.062455541,-1.189823966,-0.8895978063,1.214041429,1.182093575,0.6922165976,0.2935685827,0.3796455023,0.1044367242,5.34908944,1.872179673,0.6469305128,-3.735145,6.354535,3.945845,-0.212049,-0.945753,-0.474817,0.721581,48.887126,-69.98986,-8.736888,5.499761,2.6744595,-0.4999415,-1.81915,-0.589068,-4.5098825,46.3615925,-70.5134805,-9.821516,3.313744,2.121371,-0.81127,-2.259777,-0.781884,-16.055181,44.377246,-72.957015,8.119293741,5.313908653,2.943859545,0.5537122551,1.776927177,0.6189132647,8.758465538,46.52599094,71.00326069,0.9559233792,-0.4607410976,0.4925388063,-0.05999377228,0.6271915389,-0.4804463372,-0.6301214658,0.2183342357,-0.9116536613,2.396336701,1.241068203,0.721665003,0.2253067145,0.4796817973,0.1119226439,6.296254395,1.645333791,1.179748834,5.742429585,1.540250285,0.5208003766,0.05076311561,0.2300946267,0.01252667822,39.64281941,2.707123285,1.391807312,-7.75760925,5.16695025,2.85403375,-1.7109575,-0.60870925,-6.08834125,46.49688925,0
0.684776,0.253798,0.191546,0.046339,0.062585,0.022105,2.345139,0.901978,1.221764,-0.9970415908,-1.692954377,-0.4851595105,0.5159178046,-0.5917641095,-0.5514596362,-1.491417909,-0.7034353356,-1.49645279,2.736920019,1.881409613,0.9229554635,0.348649479,0.5918755621,0.1336558487,9.36090652,0.6686365506,3.10524956,0.239432,5.550042,5.933134,0.709951,2.09296,0.823228,-2.345139,49.608707,-67.371788,-6.945933,4.05359,4.0392245,0.327515,1.046854,0.70325,-14.161032,48.4361395,-71.473438,-9.395327,1.680815,2.90192,-1.066138,0.381054,0.420551,-20.565065,47.263568,-73.655166,6.617225589,4.039237933,4.244582547,0.6142886484,1.200241811,0.6810003381,14.72166461,48.38154727,70.87885195,0.6576928218,-0.1880628604,0.6439506536,-1.381946299,0.5816955171,-0.7758060477,0.291464445,0.1484667837,0.3619950636,3.371858557,1.535634391,0.9685426267,0.5878067099,0.5633582969,0.1321681928,6.986227409,0.7321520633,2.53614958,11.36943013,2.358172984,0.9380748197,0.3455167282,0.3173725707,0.0174684312,48.80737341,0.5360466439,6.432054692,-5.693702167,3.735943,4.132602833,1.059815,0.6680516667,-12.95839633,48.37600717,0
0.684776,0.253798,0.191546,0.046339,0.062585,0.022105,2.345139,0.901978,1.221764,-0.639794263,-1.565692307,-1.48131537,-0.519770368,-1.262825227,-0.2904950645,-1.322585804,-0.3689410298,-1.565089149,2.420984158,0.9442545269,1.398633559,0.2602041024,0.4686831785,0.2369079737,8.291088187,1.069817591,0.517540852,-2.432633,4.750338,5.27709,0.3901,-0.978511,-0.025268,1.082372,53.938198,-74.178787,-8.241263,4.113448,3.85965,-0.289815,-1.303155,-0.777357,-6.855021,50.871475,-74.7024,-9.874192,1.618563,2.916286,-0.690094,-1.79931,-0.937149,-14.972811,49.608707,-75.226013,7.720057416,3.650827801,4.255556593,0.4420912456,1.420669651,0.7146731889,8.588787262,51.18206097,74.70346006,0.8899393491,-0.4292861315,0.01675361955,0.7504743273,-0.05380210113,1.115562521,-0.1427779058,0.988942507,-3.48E-07,2.670911273,1.227594729,0.8860495989,0.3611504742,0.2881165881,0.3244267201,5.783238597,1.49891141,0.398007175,7.13376703,1.506988818,0.7850838917,0.130429665,0.08301116832,0.1052526967,33.44584867,2.246735416,0.1584097114,-7.2433086,3.4382488,4.1622924,-1.3911474,-0.6367928,-6.3499148,51.1601078,0
0.684776,0.253798,0.191546,0.046339,0.062585,0.022105,2.345139,0.901978,1.221764,-1.507955081,-1.453341305,-0.1685798585,-1.096817733,-1.736246112,-1.76882964,-1.190846532,-1.254658782,-0.7171159394,4.323693576,1.121747217,0.6602680024,0.1784697247,0.8761660201,0.2230886384,4.279271848,1.604725646,0.7763201737,-0.914632,5.085544,4.616256,0.515804,1.72597,0.980623,-5.953045,50.149894,-69.466247,-6.153412,4.328937,4.146969,0.373589,1.019956,0.666365,-15.874787,48.526336,-70.164405,-9.069699,1.513213,2.341649,0.150146,0.428991,0.515894,-18.761112,46.722385,-71.386169,6.271683425,3.973838915,4.023762447,0.3916828665,1.196532587,0.7631125516,14.87118354,48.39700413,70.20255574,0.2735276518,-0.4752097765,-1.186670969,-0.4572648164,0.05990605458,0.2355830552,0.5886904563,0.05196182128,-0.719213889,3.10605952,1.423194892,0.8345389809,0.1332632232,0.5513619535,0.2030296735,4.917087759,1.204197282,0.6750824479,9.64760574,2.0254837,0.6964553107,0.01775908667,0.3040000038,0.0412210483,24.17775203,1.450091093,0.4557363114,-5.4485234,3.7102442,3.9362684,1.0619276,0.7356084,-14.034755,48.3820206,0
0.684776,0.253798,0.191546,0.046339,0.062585,0.022105,2.345139,0.901978,1.221764,-1.089767795,-0.5782233239,-1.553335773,-1.30525365,-1.607894009,-1.204685117,-0.9257732731,-1.145226647,-1.234843825,1.199841806,0.958454891,1.476729631,0.3798426884,1.105570544,0.131088723,6.953816568,3.209449809,3.105251043,-0.838013,5.573986,4.616256,0.18823,-0.419239,0.152633,1.803953,55.381359,-71.386169,-9.639548,4.348092,3.620217,-0.482897,-1.164935,-0.883352,-2.886325,51.593055,-73.655166,-10.448829,1.585042,2.164469,-0.739097,-2.374295,-0.97177,-21.10625,48.706733,-75.749626,8.147701619,4.225128074,3.502549098,0.5143179844,1.563863646,0.7387598635,10.72737927,51.61229163,73.98765202,0.7452037304,-0.7830816182,-0.09046127502,0.4813840497,-0.1609787665,0.691023397,-0.7359921913,0.359931398,0.2812868375,3.760488984,1.35384287,0.9295324187,0.3534214533,0.7541651797,0.4458304517,8.281225015,2.388858868,1.646220729,14.1412774,1.832890516,0.8640305173,0.1249067236,0.5687651182,0.1987647917,68.57868774,5.706646689,2.710042687,-7.2279848,4.0023514,3.3769542,-1.3700016,-0.5890682,-6.8189426,51.5569782,0
0.684776,0.253798,0.191546,0.046339,0.062585,0.022105,2.345139,0.901978,1.221764,-1.047466998,-1.199431582,-1.356591565,-1.368531538,-1.289276349,-1.628235147,-1.650333856,-0.7868287034,-1.555310689,2.005654644,0.9407044359,1.604523271,0.3429244105,0.8581998464,0.299886692,8.023633418,1.738454142,1.811394465,-0.804493,6.574813,5.554831,0.786385,2.012797,0.757979,-5.77265,50.330291,-66.324562,-6.718472,5.937923,4.113448,0.340831,0.9808065,0.458236,-17.5885425,46.361593,-68.419017,-8.131124,1.55631,2.700797,-0.00938,0.142963,0.209626,-23.090599,45.098827,-70.164405,6.239304375,5.296912577,4.176343931,0.4763563798,1.211934629,0.5344683759,17.5626974,46.99900718,68.433636,0.6988290733,-0.7180274498,-0.008285228913,0.08992500384,0.1542907181,0.1099922819,0.246732177,0.7745077018,0.1353027187,2.732561087,1.973495744,1.039881699,0.2774523658,0.6457836355,0.214822754,6.98176157,1.841643356,1.41437029,7.466890092,3.894685452,1.081353949,0.07697981527,0.4170365038,0.04614881565,48.74499462,3.391650251,2.000443317,-5.609102333,4.9155465,4.044810833,1.025548167,0.4893951667,-16.115314,46.96291117,0
0.684776,0.253798,0.191546,0.046339,0.062585,0.022105,2.345139,0.901978,1.221764,-0.8311050247,-0.7882953884,-1.906328426,-1.836606376,-0.7099762263,-1.230356779,-1.690698383,-1.70452862,-1.78220802,0.6247700575,0.3443328826,1.253089465,0.1451067269,0.1206259991,0.3399636539,5.482817195,4.279270366,1.940779678,-5.784686,5.511733,4.788647,-0.42404,-0.385949,-0.116084,-1.082372,56.102939,-73.306091,-8.305909,5.11667,3.897959,-0.539357,-1.366406,-0.6299485,-5.231464,52.855825,-74.7023955,-8.892518,3.61064,2.700797,-0.669321,-1.490911,-0.966977,-12.086486,47.624359,-76.971397,7.915917301,4.893520923,3.93359461,0.5528449416,1.235801767,0.6655357698,7.467908489,52.4782156,74.93707386,0.9522195763,-0.966764819,-0.06371047017,-0.04213497956,1.097232342,0.3493758018,-0.2100374131,-0.1970687622,-0.1569918259,1.214111034,0.7289172886,0.9330184034,0.1037697767,0.4462496626,0.3159859158,4.567912581,3.524351593,1.572662209,1.474065602,0.5313204136,0.8705233412,0.01076816655,0.1991387614,0.09984709896,20.86582535,12.42105415,2.473266425,-7.8222555,4.83892825,3.8213405,-1.152418,-0.5857395,-5.9079465,52.359737,0
0.684776,0.253798,0.191546,0.046339,0.062585,0.022105,2.345139,0.901978,1.221764,-1.105406547,-1.390447588,-0.03633738109,0.3227997576,-0.9184877974,-1.106964719,-1.604456845,-1.742928806,-0.7315743993,1.59742383,1.60807262,0.6070203437,0.1301013099,0.4481513617,0.2434225278,10.56445261,3.476904578,0.7763105367,-1.192373,5.818207,4.410344,0.644702,1.694012,0.833081,-1.262767,51.593055,-70.164405,-7.757609,4.429499,3.905142,0.4999575,0.860563,0.617362,-12.6276715,48.706733,-70.6880185,-8.911673,1.41744,1.709547,-0.198201,0.36614,0.13186,-21.647436,45.27922,-72.433403,6.970483158,4.256352563,3.66864755,0.4707770117,1.068617534,0.5937847469,14.11778146,48.41410196,70.92543747,0.7397602104,-0.4007444697,-1.154871191,-1.319648555,0.3584230754,-0.5408026109,0.1101070545,-0.07382601746,-0.7656390516,2.944954401,1.603752833,0.9131889034,0.2773239532,0.4294151347,0.2425360445,7.58661811,2.56812642,0.8165868777,8.672756426,2.57202315,0.8339139733,0.07690857501,0.1843973579,0.05882373288,57.55677434,6.59527331,0.6668141288,-6.317822333,3.942653167,3.553176167,0.9785428333,0.5419931667,-11.90609,48.34594083,0
0.36034575,0.266967,0.3842895,0.06777875,0.063384,0.03908225,1.39806225,0.9921725,1.3526745,-0.6766252224,-1.137706386,-1.150837686,-1.209362243,-1.187794618,-1.332944465,-1.308166946,-1.272107425,-1.652521665,1.753615974,1.995004371,1.682620084,0.2779730899,0.9077528603,0.1993981376,9.628361288,6.686364024,3.881566768,-0.526751,4.922729,6.886075,0.876288,1.984852,0.424928,0.541186,52.31464,-44.681808,-7.226069,3.337687,5.751165,0.523414,0.78721,0.224123,-7.035417,45.64001,-50.092494,-8.408865,0.890688,1.000827,-0.068083,0.096376,0.036101,-20.565065,40.047756,-52.710571,6.454924097,3.533289702,4.985364883,0.5265983793,1.142508267,0.2531833092,11.23758722,45.36625441,49.17097267,0.9199788652,-0.4286982118,-0.5573611267,-0.2719310362,0.1885955097,0.1998272863,-0.5116705721,0.3480908936,0.2557943673,2.759568016,1.389146164,2.022371107,0.3207449358,0.6274383053,0.1345091166,8.006041771,4.420568357,3.146435021,7.615215634,1.929727065,4.089984894,0.1028773138,0.393678827,0.01809270246,64.09670484,19.5414246,9.900053341,-5.835308857,3.248755,4.556739857,0.9548017143,0.2144972857,-7.885852,45.15036671,0
0.36034575,0.266967,0.3842895,0.06777875,0.063384,0.03908225,1.39806225,0.9921725,1.3526745,-1.009901055,-0.9392554435,-0.5147625278,-0.6408934246,-1.565987627,-0.916104515,-1.517273974,-1.46684773,-1.025315904,1.469629449,0.9513539677,1.959504944,0.5656179355,1.004491172,0.2410540708,10.83190663,4.412996638,0.7763142432,2.686431,5.339342,8.629143,0.156158,0.101436,0.047553,-1.262767,51.412662,-47.64896,-6.8525545,4.554004,4.9801935,-0.273283,-1.0172415,-0.1773545,-9.651149,45.2792205,-48.696189,-8.17901,-0.052675,1.106178,-1.82553,-1.716199,-0.591882,-24.894552,41.851711,-50.441574,5.989635808,3.961846962,5.377038776,0.8416630123,1.139308119,0.3036389812,15.16353681,46.19586114,48.90098908,0.800618577,-0.785333715,-0.1309178724,-0.8624612118,0.2116361765,-0.4240398454,-0.2884213725,0.3020000666,-0.4655159884,3.932940243,1.875643273,2.159073195,0.6710600399,0.692765143,0.2118711923,8.756578755,3.428622944,0.9087628927,15.46801896,3.518037687,4.661597063,0.4503215772,0.4799235434,0.04488940214,76.67767149,11.75545529,0.8258499951,-4.51749025,3.489726875,4.92452525,-0.9044885,-0.21750225,-12.3796275,46.0684505,0
0.36034575,0.266967,0.3842895,0.06777875,0.063384,0.03908225,1.39806225,0.9921725,1.3526745,-0.81138982,-1.164362079,0.2148803538,-0.5672436012,-0.936913413,-1.487168211,-1.332774016,-1.308490554,0.208080642,1.352486083,0.9833033042,1.139495448,0.2495434511,0.5087601404,0.2337492897,6.6863618,5.215360944,1.940780419,0.943364,5.34413,7.307476,0.640062,2.166482,0.335711,-0.721581,47.985149,-42.238273,-7.190154,4.5348485,4.5923125,0.374807,0.7804195,0.135971,-5.411859,43.1144765,-47.2998825,-8.188588,0.905054,-0.430978,-0.480347,-0.168613,-0.059508,-21.286645,37.883014,-50.267036,6.352518757,4.053216265,4.608574564,0.4430092607,1.239288203,0.2156536283,11.83910748,43.05749977,47.20257068,0.8990802602,-0.6613670384,-0.7544731155,-0.8835846575,0.3692145141,-0.006504246494,-0.5697037125,0.07405135158,0.8569441135,3.359628322,1.571086382,2.132876674,0.3671512878,0.7562123563,0.1454992974,8.049571847,3.542410945,2.286447374,11.28710246,2.468312419,4.549162906,0.1348000682,0.5718571278,0.02117004555,64.79560693,12.5486753,5.227841596,-5.391418375,3.73634175,4.08531475,0.981823875,0.15917425,-8.681524,42.91153238,0
0.36034575,0.266967,0.3842895,0.06777875,0.063384,0.03908225,1.39806225,0.9921725,1.3526745,-1.330237255,-1.371082427,-0.9500761057,-1.016907303,-1.62352236,-0.1016397943,-1.424331334,-1.413611824,-0.9184064369,1.583224948,1.171444043,0.7738620192,0.2791562065,1.120181589,0.07186321213,6.953816568,3.209449809,2.070170821,-0.838013,5.612295,7.307476,-0.084063,-0.410964,0.051548,-2.886325,51.773452,-49.219802,-8.049716,4.822168,5.032868,-0.789545,-1.396349,-0.450732,-7.576603,44.016452,-51.139724,-9.117585,0.74224,4.510906,-0.977833,-2.212353,-0.633694,-20.74546,41.851711,-54.455955,6.757135278,4.11543119,5.611559939,0.7290049292,1.492764314,0.4585187377,12.30555187,45.91079989,51.69293252,0.5927278071,-0.5419391884,0.7535294653,0.6984177935,0.0647908988,1.159500647,-0.4404823517,0.4955522079,-0.2755448943,3.184001573,1.852716936,1.038616101,0.3318636382,0.7013778129,0.2334407825,6.814455192,3.859953584,1.748871687,10.13786601,3.432560045,1.078723405,0.1101334743,0.4919308365,0.05449459892,46.43679956,14.89924167,3.058552179,-5.9599506,3.674808,5.5146062,-1.3177308,-0.3946452,-10.2464534,45.7482492,0
0.36034575,0.266967,0.3842895,0.06777875,0.063384,0.03908225,1.39806225,0.9921725,1.3526745,-1.187815803,-0.4321270604,-0.8749324465,-1.251210763,-1.866009901,-1.132728556,-1.403038358,-0.9914097625,-0.4623032563,1.324086096,1.245990024,1.448330386,0.308375331,0.8317450337,0.05981929301,8.424816683,4.947907658,2.328941247,-0.301685,5.162162,7.130296,0.993469,1.759545,0.205481,-1.262767,48.887126,-40.667427,-7.012974,4.1972495,4.6880855,0.669757,1.0657815,0.1274485,-8.0275915,42.843885,-48.9579955,-7.992252,1.005616,2.863611,0.316483,0.49559,0.055809,-19.663087,35.898666,-50.616111,6.192468351,4.020453353,5.080900375,0.695460705,1.238403047,0.139062788,11.69095181,42.90248892,47.60535838,0.7350785369,-0.9180803258,0.2223667379,-0.05067157966,0.05493721838,0.05363061155,-0.3334688041,-0.145210141,0.9971672312,2.996573119,1.428040681,1.362543211,0.2314445813,0.5565324828,0.04966937606,6.728043332,4.228934644,3.528380059,8.979450455,2.039300186,1.856524003,0.05356659421,0.3097284044,0.002467046918,45.26656708,17.88388823,12.44946584,-5.4191525,3.758290167,4.894795667,1.106306333,0.12989,-9.560951167,42.69355533,0
0.36034575,0.266967,0.3842895,0.06777875,0.063384,0.03908225,1.39806225,0.9921725,1.3526745,-0.9573807127,-1.066339594,0.06356057404,-0.8002194047,-1.141793855,-1.52169299,-1.078408773,-1.349282566,-1.882468784,1.572575417,1.107546853,1.096897321,0.4457821634,0.6882180194,0.2430281557,6.686362541,4.279270366,4.399106138,-0.407035,5.425538,6.536504,0.148968,-0.09857,-0.062704,-2.164744,48.706733,-45.030883,-7.0393115,4.6545655,5.303427,-0.5470605,-0.9389435,-0.2834835,-7.0354175,41.4909185,-48.52165,-8.734494,1.494058,1.762222,-1.395157,-2.027527,-0.533291,-18.400321,38.243804,-52.361495,6.330122627,4.310075905,5.211465289,0.7413904234,1.313770874,0.3466136789,10.17382638,42.51056552,48.61865933,0.7700579741,-0.7172070249,-1.131949569,-0.292936399,-0.05460777031,-0.0551439537,-0.5472117169,0.3987032946,-0.02793858961,2.92636967,1.464636839,1.578606963,0.4906035409,0.6672443842,0.1722324358,5.800456363,3.883972776,3.069758884,8.563639443,2.145161071,2.491999943,0.2406918344,0.4452150683,0.02966401193,33.64529402,15.08524453,9.423419604,-5.613093,4.053590167,4.966625667,-1.131715,-0.300794,-8.358316167,42.33276433,0
0.36034575,0.266967,0.3842895,0.06777875,0.063384,0.03908225,1.39806225,0.9921725,1.3526745,-1.126229232,-0.8669619539,-1.205435319,-0.8710269907,-1.542794882,-0.9654512195,-1.571103158,-1.309814084,-1.410200859,0.1845913892,1.192743107,2.861162826,0.3048215335,1.235474668,0.1200344408,6.953816568,4.546724393,2.846479134,0.684777,5.952289,7.709722,0.732475,2.072471,0.323727,-1.262767,47.804756,-41.016502,-7.513388,5.147796,4.400767,0.415554,1.203202,0.158076,-5.953045,41.310523,-46.776268,-7.637893,0.881111,1.27378,0.028058,0.259364,-0.032077,-20.38467,37.341827,-48.696189,6.014606585,4.448017588,5.021297833,0.5110408603,1.281547768,0.1850756229,11.70287559,42.36662335,45.37459044,0.7765743424,-0.8213544402,-0.06128603871,-0.446190866,0.1931654284,-0.04898675886,-0.3106628005,0.1618675084,0.4498675111,3.285955617,1.743106916,2.115297165,0.2337731886,0.7114997695,0.1107281886,7.265525987,3.610482183,2.924838647,10.79750432,3.038421721,4.474482098,0.05464990372,0.506231922,0.01226073176,52.78786786,13.03558159,8.554681111,-5.037657,4.092241286,4.554003714,1.065895286,0.1482978571,-9.174389857,42.21250043,0
0.36034575,0.266967,0.3842895,0.06777875,0.063384,0.03908225,1.39806225,0.9921725,1.3526745,-1.513168222,-1.074222727,0.8815191794,0.3280218468,-1.669761315,-0.1726331639,-1.474605948,-1.532130272,0.3085174594,3.887063516,1.384433937,0.2378390479,0.1383942454,0.7294795805,0.08962997582,9.494633533,2.54081993,0.9057001976,0.794915,5.870882,5.588352,0.204895,-0.594991,0.068059,-1.984348,42.392898,-41.540119,-5.2172315,4.86766,5.394411,-0.3045755,-1.26958,-0.0452595,-10.733521,39.416372,-44.769077,-8.279572,2.432633,3.763877,-0.491799,-2.197173,-0.298663,-18.400321,37.161434,-45.5545,5.526321593,4.70822475,5.177381508,0.3518636891,1.454339285,0.1365628201,12.07503702,39.70247481,44.32351138,0.3322536262,-0.5742896239,-1.618021885,1.248017809,-0.1404975501,-0.9016532067,0.07992097799,0.1360548591,1.299806047,3.426118913,1.228134579,0.6291160285,0.2277377395,0.6067294837,0.1158038836,6.079630995,1.90177174,1.32701427,11.73829081,1.508314543,0.3957869773,0.05186447801,0.3681206664,0.01341053945,36.96191304,3.616735752,1.760966874,-4.336120333,4.5452245,5.139016667,-1.3217345,-0.07238,-10.43286183,39.65690067,0
0.36034575,0.266967,0.3842895,0.06777875,0.063384,0.03908225,1.39806225,0.9921725,1.3526745,-1.524140104,-1.529473786,-0.4978885239,-1.702941236,-1.242432622,-1.44752044,-1.503316226,-1.5718452,-1.803243641,4.089403878,3.003154606,0.8803588191,0.420906322,0.7608699759,0.3786580892,6.686359576,5.34908944,1.293855095,0.622524,6.402421,6.72805,0.92316,2.094043,0.373262,-4.149092,47.263568,-42.936424,-5.420749,3.443037,5.775109,0.639263,1.393355,-0.027549,-14.972811,42.032104,-43.809116,-8.17901,1.41744,3.380785,0.268545,0.215155,-0.417176,-19.482692,38.424198,-47.125343,5.744337283,4.479747609,5.49590757,0.6542876539,1.462570191,0.2900922211,14.52915917,42.99422114,44.86184574,0.3207295151,0.03496725439,-0.7800730595,-0.09548344406,-0.3786688925,-0.01688145816,0.3600714054,0.09987948561,-0.3397224228,3.506185462,1.905955089,1.115639504,0.2676830212,0.6830516934,0.289677201,6.060207999,3.370255975,1.903668126,12.29333649,3.632664801,1.244651503,0.07165419983,0.4665596159,0.08391288079,36.726121,11.35862534,3.623952335,-4.550173,4.0540688,5.381482,1.2932718,-0.0155118,-13.2049364,42.8619228,0
0.36034575,0.266967,0.3842895,0.06777875,0.063384,0.03908225,1.39806225,0.9921725,1.3526745,-1.233836197,-1.110855028,-0.2258161884,-1.268739005,-1.308430912,-1.147972404,-1.586216876,-1.307946434,-1.417074409,2.786616845,1.288588892,1.182093575,0.428606958,1.166377991,0.201964522,11.76799795,5.215361685,5.563573055,0.60337,6.249185,8.298727,-0.100841,-0.186722,0.154614,-0.180395,46.361595,-37.874813,-6.313832,5.188499,5.207654,-0.626157,-1.0733025,-0.143665,-8.929568,40.4987445,-43.0236945,-8.720128,1.015193,1.043925,-0.946141,-2.423545,-0.287744,-18.941507,36.259456,-47.64896,6.049927605,4.74135724,5.522190144,0.6525565,1.427318949,0.1968578749,11.93157311,41.1050668,42.79666134,0.5761852492,-0.7112064946,-0.4979371383,0.3334597937,-0.2821177026,0.4749786688,-0.08302534029,0.2264140237,0.08760974599,3.379979868,1.919753389,2.176522541,0.3018818297,0.7983566707,0.1590739551,7.296290584,3.570126335,3.593492977,11.42426391,3.685453075,4.737250371,0.09113263908,0.6373733737,0.02530452318,53.23585629,12.74580205,12.91319178,-5.017704667,4.335321833,5.075168333,-1.183159333,-0.1159676667,-9.4406875,40.949734,0
0.83561975,0.325628,0.33640275,0.19854175,0.10959075,0.02336975,1.262767,1.984348,2.66171025,-0.7132102736,-0.3617423532,-1.46647398,-1.238816499,-1.43514809,-0.8218520605,-0.7124863328,-1.406882212,0.3370191981,1.377334496,0.8022627473,2.463582285,0.2562559327,0.3182464966,0.09436763121,5.08163393,3.476906802,1.811394465,0.335205,8.600411,6.51256,0.902989,0.914717,0.103287,-17.498344,53.757801,-59.343025,-2.37038,8.030562,3.385574,0.548517,0.452385,-0.041059,-27.780876,46.902778,-62.484718,-3.423883,4.525272,1.077446,0.089381,0.183401,-0.139064,-33.192737,44.016452,-70.338943,2.464490928,7.524898343,4.136196878,0.5669600671,0.5815606816,0.08399663845,26.78004561,48.03857315,63.44841442,0.7522881457,-1.01895676,0.1502378174,-0.1322448332,0.2721708215,0.2947642727,0.4790957847,0.4485989536,-1.146689786,1.210676716,1.345194735,1.832407296,0.2593529201,0.2623700615,0.07365345977,4.847232159,3.379506501,3.086961429,1.465738111,1.809548875,3.3577165,0.06726393714,0.06883804916,0.005424832135,23.4956596,11.42106419,9.529330862,-2.14662,7.403684636,3.708154273,0.5190132727,-0.04038072727,-26.33771409,47.91955182,0
0.83561975,0.325628,0.33640275,0.19854175,0.10959075,0.02336975,1.262767,1.984348,2.66171025,-1.153194148,-1.452519857,-1.162594003,-0.4202572696,-0.6911596712,0.1127475014,-0.3747058719,-1.525148689,0.2393337365,2.25059165,4.557981792,1.313437305,0.1575442769,0.1899213442,0.03119246808,7.75617865,8.558546662,1.293850647,2.250664,8.648298,7.278744,0.108822,-0.130324,-0.160104,-13.349253,62.957962,-62.659255,-1.9825,5.31061,6.143835,-0.389196,-0.344445,-0.258908,-27.780876,55.922546,-67.371788,-3.68247,-0.646467,1.541944,-0.563103,-0.634734,-0.297525,-36.259456,44.016452,-72.258865,2.482255314,5.738187878,5.542503944,0.3713931908,0.3795319224,0.2538635651,28.09524055,54.79416403,67.45474697,0.5288387111,-0.2612352393,-0.6087914085,0.8342694631,-0.157473025,0.9314639591,0.4562961676,-0.1696649057,0.2032838351,2.055952088,3.294212628,2.02436372,0.1953662884,0.1432705777,0.03908434858,6.305763977,6.706099134,2.399168039,4.226938987,10.85183684,4.098048473,0.03816798665,0.02052645845,0.001527586304,39.76265934,44.97176559,5.756007279,-1.390917846,4.698400077,5.159583462,-0.3514513077,-0.2508368462,-27.37845654,54.38224569,0
0.83561975,0.325628,0.33640275,0.19854175,0.10959075,0.02336975,1.262767,1.984348,2.66171025,-1.193798457,-0.7404985948,-1.42536464,-1.499517043,-1.153142292,0.2238125761,-1.228875456,-1.558655601,-1.513703175,1.412832441,0.9158567641,2.300289959,0.2898175991,0.1800501786,0.02211004688,2.94200023,5.349090922,1.035086152,-0.876322,8.547736,6.201298,1.062781,0.710715,-0.069022,-22.729808,51.593055,-60.390254,-2.715163,7.7193,4.381612,0.694993,0.357308,-0.129211,-27.780876,45.820407,-61.437484,-3.692047,5.693702,1.580254,0.455305,0.235866,-0.188334,-31.027992,41.490921,-62.135639,2.600821071,7.583018427,4.28261978,0.7660847999,0.4601092922,0.1373089817,27.35371328,46.74163326,61.39135438,0.2844525713,-0.8141709991,-0.01023702283,0.2269440404,0.5234326347,0.3856943442,0.240733544,0.0272700663,0.2528848133,0.9290848234,0.9685215329,1.658172074,0.2244467427,0.1636727415,0.03285858224,2.761923111,3.717962008,0.677362239,0.863198609,0.9380339598,2.749534628,0.0503763403,0.02678876632,0.001079686427,7.62821927,13.82324149,0.4588196029,-2.429212143,7.520913143,3.948581714,0.4300137143,-0.1333194286,-27.21391943,46.59353,0
0.83561975,0.325628,0.33640275,0.19854175,0.10959075,0.02336975,1.262767,1.984348,2.66171025,-1.198453712,-1.390237517,-1.188983503,0.01260206124,-1.506575789,1.220593226,-0.9746386681,-1.481809584,-0.480993301,2.960557962,3.280042431,1.774915037,0.1314845777,0.2088734483,0.03514063778,5.616543467,6.686358093,1.811400395,2.983327,8.662664,7.264378,0.074733,-0.119405,0.011407,-19.482692,57.18531,-57.248565,-0.809281,5.755954,5.674547,-0.261895,-0.293578,-0.100182,-29.945621,51.232265,-60.564796,-3.481347,1.652083,1.518001,-0.529014,-0.469349,-0.259707,-37.883014,41.13013,-62.833793,2.222768961,6.199563535,5.289616842,0.2959154149,0.3257422319,0.1209944935,29.8005685,50.00818315,60.51797879,0.2442417405,-0.2175085951,-0.4974563346,0.345986852,-0.00377631427,-0.6394398906,0.2045280535,-0.2315355404,0.4698385484,2.097904812,2.434789652,1.889113542,0.148961803,0.1246900516,0.06198667103,5.399641305,5.736342578,1.56791624,4.401204599,5.928200652,3.568749973,0.02218961876,0.01554760897,0.003842347386,29.15612622,32.90562617,2.458361337,-0.7345047692,5.701437308,4.940778923,-0.3009325385,-0.1039101538,-29.30729869,49.67809131,0
0.83561975,0.325628,0.33640275,0.19854175,0.10959075,0.02336975,1.262767,1.984348,2.66171025,-1.333437843,-1.32312606,-0.9878838971,-0.9200302234,0.1008675921,-0.7877435677,-1.109938994,-1.320281717,-0.2314792407,3.223245423,2.797266377,1.892058404,0.1676126286,0.1111492057,0.08410283475,6.017724508,6.151453004,1.811394465,3.692047,8.590834,7.082409,0.857981,0.721368,-0.014693,-21.827831,56.463729,-53.583263,-0.8116755,6.5293205,5.3584965,0.591794,0.4214915,-0.142127,-31.749574,49.2479185,-58.993949,-3.275435,1.790954,1.508424,0.337325,0.131735,-0.296726,-37.341827,43.114479,-61.961101,2.391690934,6.353384786,5.030961109,0.619274331,0.4312781262,0.1667595393,31.31753601,49.71832382,58.5111825,0.3160471872,-0.4096948117,-0.487231328,0.02470416231,-0.1200526636,-0.07346577191,0.3880804994,0.03052380519,0.6189078365,2.380186596,2.398647317,1.735091969,0.1510009004,0.1493841175,0.0825316378,4.779485612,4.307264438,2.185963292,5.665288232,5.753508952,3.010544139,0.02280127193,0.02231561457,0.006811471238,22.84348271,18.55252693,4.778435513,-0.2343017143,5.8831955,4.722290286,0.4045802857,-0.1449043571,-30.95067979,49.53139607,0
0.83561975,0.325628,0.33640275,0.19854175,0.10959075,0.02336975,1.262767,1.984348,2.66171025,-1.188944274,-1.479876381,-1.175983937,-1.129698352,0.6083723161,-0.9542884754,-0.4862526915,-1.474552629,-1.415374299,2.314488841,4.309493212,1.995005854,0.1480674836,0.07028275817,0.1587288761,4.279270366,8.558546662,2.328935317,2.197989,9.141529,7.135085,-0.176939,0.032664,0.059344,-20.023878,61.334403,-60.215717,-0.684777,5.712856,5.425538,-0.385468,-0.360424,-0.136135,-31.027992,54.479381,-62.135639,-3.002482,1.015193,1.920248,-0.632613,-0.471746,-0.396063,-37.522224,41.310523,-64.579177,1.905463756,6.21170723,5.387423934,0.4261766132,0.3470092629,0.2113317412,30.63230826,53.40013974,62.5192119,0.3222381136,-0.1479271193,-0.5118296863,-0.0622770658,1.241085986,-0.2736184783,0.4779648492,-0.3103806826,-0.03014737723,1.749563037,2.845282031,1.807689643,0.1513495894,0.1432312244,0.140567127,4.982286506,7.134286054,1.52605169,3.060970821,8.095629835,3.267741845,0.02290669821,0.02051518364,0.01975911718,24.82317883,50.89803749,2.328833762,-0.7548650909,5.521745818,5.075095545,-0.31607,-0.1578036364,-30.22441282,52.92142182,0
0.83561975,0.325628,0.33640275,0.19854175,0.10959075,0.02336975,1.262767,1.984348,2.66171025,-0.5738773578,-0.8970288353,-1.207976729,-1.302263586,-1.31350246,-0.6881452945,-1.218189436,-1.240132833,-1.536159993,0.6886665066,0.7064169617,1.643571307,0.2226935249,0.1224028979,0.04599921643,2.273363679,4.145544835,1.682009993,-1.005616,8.586046,5.569197,0.774623,0.420693,-0.038395,-23.090599,50.510684,-58.993949,-2.5068565,8.040139,3.6345835,0.5679585,0.3240185,-0.145989,-27.4200865,44.467443,-60.7393335,-3.179662,6.273128,1.632929,0.370615,0.114691,-0.181676,-31.027992,40.76934,-63.182868,2.441872021,7.797166183,3.678815556,0.5952370095,0.3010789844,0.1422146155,27.09715181,45.52810812,60.97697759,0.6907341273,-0.7358825638,0.0326963076,-0.1209873496,-0.3539739166,0.8247326686,0.1392128319,0.2380501142,-0.2260458177,0.6759968829,0.7961616453,1.300591502,0.1425646284,0.1057223233,0.04909469236,2.631237221,3.214062114,1.54086271,0.4569717857,0.6338733655,1.691538254,0.02032467327,0.01117720964,0.002410288818,6.923409312,10.33019527,2.37425789,-2.346437125,7.756412,3.441241875,0.281906625,-0.13347175,-26.96909763,45.41451788,0
0.83561975,0.325628,0.33640275,0.19854175,0.10959075,0.02336975,1.262767,1.984348,2.66171025,-1.211700773,-1.127492024,-1.393062297,-1.316008802,-0.09827136412,-0.4330878694,-0.4614766272,-1.337076917,-0.8476135055,0.4969771593,0.5821704479,1.824611863,0.1970289392,0.1243769827,0.02132278511,1.604728611,2.407090693,1.035084669,-2.23151,9.002657,4.443865,-0.267222,0.387935,-0.02721,-17.317949,46.541988,-59.692104,-2.863611,8.609989,2.667277,-0.453113,-0.436858,-0.118558,-25.435737,42.753688,-60.913871,-3.323321,7.278744,1.259414,-0.586007,-0.520749,-0.162501,-26.51811,41.13013,-62.135639,2.878149309,8.349410093,3.11094303,0.4280713369,0.4332604268,0.1173199821,23.95266526,43.52030606,60.77979409,0.3297704656,-0.6122091671,0.01048192996,-0.1247890452,1.27037483,0.8082677431,1.054549532,0.401480011,-0.3920373079,0.3932245383,0.6308639488,1.152792113,0.1158389378,0.339914048,0.04490879681,3.442857646,1.979422157,0.8216285211,0.1546255375,0.3979893219,1.328929655,0.01341865951,0.11554156,0.002016800031,11.85326877,3.918112077,0.6750734267,-2.8511608,8.3255426,2.88947,-0.2686504,-0.1083844,-23.7039428,43.475268,0
0.83561975,0.325628,0.33640275,0.19854175,0.10959075,0.02336975,1.262767,1.984348,2.66171025,-1.402433849,-0.9913424774,-1.047724276,-1.464076397,-1.184558539,-0.6766731064,-0.01844861085,-0.9159763487,0.4905419181,1.363134873,0.8235603281,1.654220097,0.2031483799,0.2542818478,0.09397400032,3.878089325,2.540819189,1.293855837,-0.392669,8.696185,6.062427,0.862242,0.808721,-0.014427,-19.121902,50.149894,-56.724952,-2.197989,8.037745,3.3975455,0.518822,0.559845,-0.109769,-27.6004815,45.098827,-58.1212575,-3.261069,6.488617,1.498847,0.344516,0.116821,-0.285807,-31.388782,43.294872,-64.579177,2.299477671,7.92624112,3.761512482,0.605957006,0.5246989905,0.1488307541,27.45729681,45.75030824,59.00292062,0.301554158,-0.5582652669,0.275613892,0.3001012175,-0.2847560138,-0.5481072261,0.9074328387,0.712714494,-1.360773527,1.050779404,0.7519313544,1.463376212,0.1798737903,0.2255295378,0.08430295538,3.789106426,2.441592025,2.490996201,1.104137356,0.5654007618,2.141469936,0.03235458044,0.05086357242,0.007106988286,14.35732751,5.961371617,6.205062072,-2.045350875,7.890494125,3.465184875,0.47375675,-0.122652375,-27.19459175,45.68511063,0
0.205912,0.13408225,0.131688,0.03655275,0.044009,0.027231,1.39806425,1.12747325,1.17812925,-0.5360810843,-0.6731638617,-0.5094332355,-0.003410504493,0.4012103417,-0.02436109916,-0.5344244587,-0.2678321517,-0.5058654793,0.152642794,0.1064953174,0.1100446671,0.02862682494,0.03494345169,0.02112411641,1.069816109,0.9360883539,0.7763097954,-1.091812,0.574638,7.599584,0.046281,0.016195,0.151302,-18.039529,52.67543,-69.640785,-1.474903,0.4046405,7.3409965,-0.041871,-0.055845,0.1233385,-19.843482,50.600883,-70.688018,-1.69997,0.220278,7.18776,-0.10632,-0.170229,0.057024,-22.188623,49.247917,-72.60794,1.456205252,0.4174233716,7.364948888,0.05263250502,0.0734667668,0.1225287863,20.03547959,50.69269499,70.88354375,0.6558017024,0.004075769205,0.5070317513,0.2914338567,-0.7016884244,-0.7616413277,-0.3835689685,0.5030775969,-0.6163369918,0.1744135848,0.0885044669,0.1056160635,0.03553606749,0.04416760037,0.02308846122,1.068527619,0.8574526868,0.8097229305,0.03042009858,0.007833040662,0.01115475287,0.001262812092,0.001950776922,0.0005330770414,1.141751273,0.73522511,0.6556512242,-1.445722531,0.407932875,7.364191563,-0.05870765625,0.1203338125,-20.00696606,50.68544269,1
0.12570175,0.1592225,0.219081,0.06591425,0.09714025,0.05086725,0.67648225,0.85687575,1.17813475,0.8452563922,4.803555921,2.53043414,-0.2527355504,-0.3580198228,1.06409139,0.01064461905,-0.7720299965,-1.39383351,0.1029452263,0.1490919617,0.159742976,0.05429141064,0.06732126024,0.03751057743,0.534909537,0.9360905778,0.9056942671,-1.297723,1.709547,8.044928,0.099545,0.048686,0.229334,-16.055181,47.263568,-67.720863,-1.549127,1.0343475,7.285927,-0.065307,-0.0723565,0.1245365,-17.137554,45.820407,-68.593559,-2.049541,0.852379,6.838189,-0.215512,-0.236277,0.087119,-18.761112,44.55764,-69.640785,1.591913662,1.081297066,7.292770653,0.1068949778,0.1009714992,0.1352802256,17.22913431,45.77533639,68.59695096,-1.209505462,2.195437628,1.213010199,0.1223584607,-0.3305856098,1.182040902,-0.6244356195,0.3520165304,-0.1003918178,0.1978623981,0.2012929263,0.2643097408,0.08484511989,0.07889354464,0.03704098261,0.7010405231,0.7696787397,0.6823916273,0.03914952858,0.04051884218,0.06985963911,0.007198694369,0.006224191386,0.001372034393,0.491457815,0.5924053623,0.465658333,-1.579569429,1.062395643,7.287979429,-0.06301628571,0.1301103571,-17.214866,45.76886514,1
0.1053505,0.146054,0.174786,0.047671,0.041546,0.0364855,0.9019775,0.8117785,0.8726915,0.2502824153,0.8703228993,4.139722215,4.101831144,3.689229451,6.334559856,0.7888872134,0.3409659902,0.5100922674,0.08519477128,0.1206941988,0.1632908431,0.03237706725,0.03237706725,0.02369050085,0.8023635642,0.5349080544,0.7763097954,-0.038309,0.60337,7.709722,0.080636,0.113668,0.164085,-20.925855,50.691082,-67.19725,-0.253798,0.502808,7.475079,-0.011244,-0.074887,0.123338,-21.827831,48.706733,-68.419021,-0.42619,0.067041,6.531715,-0.24454,-0.367306,-0.23939,-23.992574,47.443965,-70.688018,0.2730761391,0.4738244575,7.410889889,0.07363101248,0.1263273278,0.1326428448,21.95018704,48.76122104,68.56461015,0.1522821343,-1.238515094,-2.085487439,-1.858067988,-1.188813427,-2.692588634,-1.118332379,0.6423931747,-1.044307531,0.09409619092,0.1450067144,0.2745465388,0.07032735694,0.09461034848,0.09641429329,0.7871521505,0.7889875695,0.9040125425,0.008854093146,0.02102694722,0.07537580196,0.004945937135,0.00895111804,0.00929571595,0.619608508,0.6225013848,0.817238677,-0.2563522667,0.4510905333,7.405802667,-0.08371066667,0.0910956,-21.93606853,48.75483747,1
0.148448,0.225066,0.28253,0.032757,0.043676,0.037019,0.72158,0.541187,0.698158,6.399182274,-1.236447317,4.170703084,0.9609022811,4.599963317,2.600341108,-0.2301906872,-0.3781835802,1.001287274,0.09229495331,0.1277943808,0.2200893341,0.01619001623,0.03514063778,0.03395603861,0.5349080544,0.5349080544,0.5175512302,-0.17718,0.521963,8.035351,0.130971,0.155214,0.270347,-17.317949,50.871475,-68.593559,-1.072657,0.363937,7.465501,-0.043202,-0.039466,0.128931,-19.121902,49.608707,-70.164405,-1.254626,0.081407,6.134257,-0.113511,-0.107378,0.075933,-21.10625,47.985149,-71.211631,1.039527732,0.3393963758,7.400647769,0.06322928287,0.06741781782,0.1446939055,19.16689762,49.43388941,70.00234447,2.496698283,-0.3054844686,-1.751589926,1.2251151,1.897896174,1.445632271,-0.122395215,-0.3138192695,0.325456297,0.2360339522,0.1306691809,0.38602755,0.06006539627,0.0572542144,0.04334699883,0.9543262311,0.7425012522,0.5566933701,0.05571202659,0.01707443483,0.1490172694,0.003607851829,0.003278045066,0.001878962308,0.9107385554,0.5513081095,0.3099075083,-1.012376353,0.3132338824,7.390573059,-0.03559658824,0.1380484118,-19.14312476,49.42831288,1
0.1376735,0.13767375,0.2980935,0.053597,0.061986,0.02982725,0.586286,0.9921755,0.9163225,-0.5193586312,-0.04539319556,0.1462337735,0.8121565115,1.890930654,-0.247571529,-0.7644251397,-1.037995388,-0.309352253,0.1029452263,0.0887456036,0.2342889569,0.03968184838,0.047381743,0.02546739961,0.401184006,0.2674569924,0.7763097954,-0.665622,0.842802,7.944366,0.129906,-0.002181,0.16302,-21.286645,51.593055,-67.720863,-0.842802,0.739846,7.386489,-0.026824,-0.044526,0.1378525,-22.2788205,50.149894,-69.2044405,-0.948152,0.45971,6.852554,-0.079955,-0.22589,0.08339,-23.270994,49.789104,-70.688018,0.8459771371,0.7123463734,7.395683719,0.0580089718,0.08692670034,0.1370190891,22.36228806,50.46924612,69.33985236,0.5271963191,-0.8810968428,0.1194271826,1.265928568,-1.534934614,-0.8154451736,-0.2405188391,0.752274045,0.08773880503,0.08189457104,0.1065668305,0.2665593639,0.05684202504,0.05955127134,0.02323896797,0.6093444846,0.6078590642,0.7906575895,0.006706720765,0.01135648936,0.0710538945,0.00323101581,0.003546353919,0.0005400496322,0.3713007009,0.3694926419,0.6251394238,-0.8420039167,0.7043300833,7.390878417,-0.06332375,0.135034,-22.35398458,50.46558542,1
0.28731875,0.13168775,0.1652085,0.02024,0.0627185,0.03535425,1.5333605,1.21766875,0.8290545,2.388836638,-0.2815464936,1.722736181,0.6852425601,4.042027634,1.770105677,-0.6745497597,-0.289196464,-1.200019145,0.1916908299,0.07454598085,0.1029452263,0.01579342013,0.05054042703,0.02191360209,1.069818333,1.203546088,0.6469305128,-0.732663,0.560272,7.561274,0.124047,0.129647,0.227736,-19.843482,53.577404,-69.640785,-1.1349095,0.445344,7.3936715,-0.0465315,-0.0431945,0.1136175,-21.647436,51.3224635,-70.251674,-1.948979,0.167603,6.043273,-0.196869,-0.625104,-0.215954,-23.631784,49.608707,-71.386169,1.176370994,0.4243061073,7.224946035,0.08623215591,0.1944763988,0.1447304392,21.72140077,51.57674508,70.49070145,-1.33491239,-0.8253392456,-1.817476561,0.1178421092,-2.072482607,-1.728855999,-0.05702651424,0.04347702889,-0.2807544781,0.2805211749,0.1075265326,0.4538551171,0.07451887853,0.1714372227,0.1170108343,0.9867206872,0.9877299068,0.5513751691,0.07869212959,0.01156195522,0.2059844673,0.005553063258,0.02939072133,0.01369153535,0.9736177146,0.9756103688,0.3040145771,-1.1424345,0.4104555,7.210676857,-0.09181692857,0.08517842857,-21.69897771,51.56728636,1
0.684776,0.253798,0.191546,0.046339,0.062585,0.022105,2.345139,0.901978,1.221764,-0.9172933109,-1.140048626,0.0389696703,0.06607240167,-0.6490953226,2.804808272,-0.8475179827,-0.4321388463,-0.150096598,0.4898754946,0.1916900886,0.1774912072,0.03790420832,0.04501328596,0.0173746154,1.337271619,0.802360599,0.7763097954,-0.794915,2.188412,7.64747,0.012725,0.080911,0.153166,-17.678739,49.067523,-65.277328,-1.795743,1.891516,7.163816,-0.026424,-0.009904,0.115349,-20.925855,47.443965,-67.022712,-2.178835,1.647295,6.876498,-0.107918,-0.099654,0.029593,-22.369018,46.361595,-69.291709,1.723677052,1.908958594,7.176638913,0.0468010517,0.05437212629,0.1156368275,20.65645522,47.52473319,67.29700542,0.4523635246,0.1377789286,0.5505677417,-0.8208897826,0.2360023913,-1.395798139,0.6695333915,0.4606521073,-0.1179983023,0.4059923872,0.1635681362,0.1961790056,0.03407700445,0.05197961697,0.02695911728,1.421147246,0.785249934,0.994783078,0.1648298184,0.02675453517,0.03848620222,0.001161242232,0.00270188058,0.0007267940047,2.019659493,0.6166174589,0.9895933722,-1.675181412,1.901938059,7.173957059,-0.01595141176,0.1124503529,-20.60751035,47.51824541,1
0.1436595,0.2945015,0.241827,0.0793635,0.083225,0.0431435,1.623558,1.1725685,1.134498,17.71514452,9.093826963,12.36918804,7.215142124,14.47871799,0.5399680588,-0.5691565542,-0.9390986648,-0.427179081,0.1064953174,0.2058904527,0.2200893341,0.05448859673,0.0517250262,0.03632523696,1.337274584,0.8023591164,0.7763157258,1.446171,1.762222,7.872536,0.682939,1.422917,0.115464,-18.400321,52.67543,-49.743419,1.216316,-0.454922,7.350574,0.020868,0.013817,0.013464,-20.74546,51.232265,-51.139724,-2.992905,-0.972095,3.57712,-0.206836,-0.187255,-0.129284,-22.910203,49.789104,-53.059646,1.297847056,0.6348769579,7.206550211,0.1695528107,0.2930901012,0.05141858056,20.93801639,51.20850295,51.13555544,-4.254272494,2.890624892,-3.36659905,2.503982825,3.793766293,-0.5344460268,-0.07545391212,0.1439936298,-0.4207957771,0.801737663,0.5041540709,0.7722648599,0.1609948014,0.2814770061,0.05037591926,1.11330964,0.738970199,0.8515302774,0.6427832803,0.2541713272,0.5963930138,0.02591932609,0.07922930497,0.002537733241,1.239458354,0.546076955,0.7251038132,1.020599677,-0.3858722903,7.165052194,0.0816853871,0.01030229032,-20.90839716,51.20317077,1
0.4022465,1.01399575,1.0606855,0.158327,0.10433125,0.13316,1.89415,1.75885275,1.30903625,5.049023577,4.280311167,1.195750758,9.902230377,4.681159853,2.676520446,6.435852683,1.541809786,-0.03988546402,0.3123850287,0.610571176,0.6531685617,0.122600084,0.07936443806,0.1075954082,1.33727236,1.337270877,0.9057009389,3.098255,4.740761,7.542119,0.53167,2.098571,0.104545,-11.364905,51.593055,-46.60173,2.2722135,0.038309,7.0010025,0.0224655,0.021407,-0.0101055,-23.3611915,49.2479185,-47.910766,-6.455097,-0.890688,3.677681,-1.82553,-1.716199,-0.591882,-24.894552,44.016452,-50.441574,2.664416761,1.237715106,6.705332238,0.4106730703,0.6263881795,0.1729084854,22.66208275,49.08169111,48.06539212,-2.453324004,2.00969048,-1.418593319,-2.774587908,0.1189777383,-1.741258161,2.585214548,-1.003360937,-0.6041988298,2.20934233,1.162316977,0.9924584494,0.4099015405,0.626376353,0.162729084,2.980522331,1.603343777,0.9391969028,4.88119353,1.350980754,0.9849737738,0.1680192729,0.3923473356,0.02648075479,8.883513364,2.570711267,0.8820908223,1.489269333,0.4253915,6.631478467,-0.003849133333,-0.0584516,-22.46522827,49.05549603,1
0.60696075,0.9565325,1.1708245,0.13316,0.1536,0.1018015,1.443163,2.0745455,1.614477,3.190248178,2.357476177,0.451529741,1.261313542,2.527346196,1.311851433,4.321475118,1.875813583,-0.1058243021,0.3691820371,0.6851171569,0.3975805413,0.100093441,0.119638586,0.07008557207,1.069818333,1.47100308,1.035082445,1.781377,5.612295,7.843804,0.850721,1.737174,0.171924,-4.509882,51.773452,-49.219802,1.352793,-0.102956,7.2955045,-0.0284015,0.0336575,0.0041425,-20.74546,50.0596955,-50.877918,-9.117585,-0.857168,4.022464,-0.977833,-2.212353,-0.633694,-22.549413,42.392898,-54.455955,2.934700222,1.730610635,6.828475278,0.3905688237,0.7534773606,0.2082511113,19.72524534,49.33450417,51.30071671,-2.116949581,1.842966604,-1.274744428,-0.3993131805,-0.7156286158,-1.551817549,2.335400802,-1.63905594,-0.6644876742,2.933535199,1.656683233,1.029669372,0.3899411241,0.7498855758,0.1979828161,4.311950736,2.360851751,1.262708212,8.605628761,2.744599333,1.060219015,0.1520540803,0.5623283768,0.03919719549,18.59291915,5.573620989,1.594432029,0.08268393333,0.5004136667,6.7503967,-0.07348303333,-0.06458583333,-19.24817873,49.27798373,1
0.85357625,0.994842,0.97927825,0.16358675,0.1193115,0.15186925,1.623558,1.93924975,2.53080725,2.23698797,1.35658386,0.7529229091,3.008178872,2.263306483,1.947245644,3.696535451,3.445567783,-0.6295963203,0.4898769772,0.5892721126,0.6389689389,0.1243762414,0.1012780401,0.1147022619,1.203545346,1.60472787,2.199553069,2.470942,5.377651,7.829439,0.732475,2.072471,0.323727,-4.690278,49.067523,-45.030883,1.309695,0.3783035,7.242829,0.0083505,0.050702,0.0013465,-18.580717,47.1733715,-49.3943415,-8.734494,-0.483653,3.672893,-1.395157,-2.027527,-0.533291,-20.38467,38.965385,-52.361495,2.985568137,1.912489941,6.833073878,0.4029662988,0.8100011814,0.1779169511,17.62779957,46.7875311,49.22894273,-1.903399941,1.637867483,-1.345361323,-1.167754365,0.04984224135,-1.248210325,2.180978782,-1.820798332,0.2815002468,2.984601174,1.624486726,1.09571502,0.4008752266,0.8099441866,0.1758509986,3.870262728,2.228902573,1.786061458,8.907844166,2.638957123,1.200591404,0.1607009473,0.6560095854,0.03092357371,14.97893358,4.96800668,3.190015533,0.07597983333,1.0092872,6.744650267,0.009608766667,-0.02703456667,-17.19768543,46.7344098,1
0.260981,0.4022465,0.4860475,0.070442,0.0989375,0.0543295,1.3529655,1.8941495,1.658114,13.67512479,5.406087431,6.680651536,4.327383759,13.4720835,7.071361426,6.183868129,0.7122713716,1.259408024,0.1916915712,0.3265846515,0.3052841054,0.06120181958,0.0734421835,0.04224823282,1.069819074,1.337274584,1.293855095,1.896304,3.443037,7.791129,0.92316,1.88365,0.227852,-14.972811,50.149894,-43.110961,1.312089,0.713508,7.336208,0.008883,0.044976,0.000947,-20.204273,47.263568,-48.172573,-5.420749,0.344783,3.380785,-0.379145,-0.093777,-0.417176,-21.827831,42.032104,-50.616111,1.707655742,1.159524452,7.08153848,0.2743062722,0.4084994022,0.1092784353,20.15332411,46.88193358,48.08736103,-3.754117571,2.428333154,-2.555146105,1.896794418,3.726861153,-1.647713563,2.048948167,-0.8889432203,1.184815511,1.399770885,0.7115638193,0.9249981709,0.270048878,0.3813815386,0.108689153,1.309502033,1.748180335,1.73045148,1.95935853,0.5063230689,0.8556216162,0.07292639649,0.145451878,0.01181333197,1.714795574,3.056134484,2.994462326,0.9781255556,0.9155183704,7.020866444,0.1463553333,0.01133333333,-20.11073537,46.8493283,1
0.36034575,0.266967,0.3842895,0.06777875,0.063384,0.03908225,1.39806225,0.9921725,1.3526745,10.27816909,9.206134916,2.757886077,5.086897744,7.897105446,1.617286559,10.45535798,5.581261021,3.729775339,0.2768863425,0.195240921,0.2520379293,0.04994812744,0.04086570625,0.02961275541,1.069817591,0.6686335854,1.035086152,1.747856,6.249185,7.546908,0.0981,0.094245,0.137569,-6.313836,48.526336,-42.412811,1.3623705,0.7350575,7.264378,-0.005365,0.0289965,0.004276,-19.302297,47.1733715,-46.950805,-8.720128,0.402246,4.549215,-0.946141,-2.423545,-0.287744,-21.467041,40.408546,-48.172573,2.314011187,1.662233669,7.022764606,0.2696116643,0.6022531467,0.09934790862,19.00188579,46.6377045,46.72242049,-3.342542194,3.200948935,-1.985621898,-2.518350932,-3.009229408,-1.493943295,3.208935134,-2.440522401,1.768696092,2.200224441,1.254216362,0.7844504537,0.2549790661,0.577835729,0.09647386817,2.861690869,1.821506507,1.221435688,4.840987592,1.573058684,0.6153625144,0.06501432413,0.3338941297,0.00930720724,8.189274631,3.317885954,1.491905139,0.7167009,1.090853833,6.9788151,-0.169749,-0.0237234,-18.78516407,46.60212007,1
0.23344675,0.12330775,0.18077125,0.03382225,0.03362325,0.02157225,1.03727475,1.443164,1.35267075,10.04505762,10.14823176,8.333284747,4.938046079,19.81682334,5.604836695,9.020111452,5.776149997,0.699713519,0.149092703,0.09939513533,0.1384431713,0.02546814091,0.02467791393,0.01559623404,0.8023628229,1.203543122,1.035085411,2.877977,6.603545,7.949155,0.902989,0.914717,-0.023748,-29.404434,61.695194,-58.644874,2.6792485,0.584215,7.1470565,0.2136195,0.0398545,-0.1198895,-36.439849,59.0794615,-60.041179,-0.905054,0.201123,5.162162,0.162086,-0.026725,-0.191529,-37.883014,51.232265,-63.706485,2.531499503,1.534597711,7.056497545,0.3199331577,0.1599524958,0.1208786107,36.09802798,58.82045009,60.24877579,-3.216322882,3.292177138,-2.433051855,2.469952173,4.143914734,0.9065143197,2.541320863,-2.167671981,-0.810841355,0.7387087318,1.21315336,0.4025081827,0.1665629131,0.1410369524,0.02226569065,1.348277013,1.885969173,1.040410945,0.5456905904,1.471741076,0.1620128372,0.02774320402,0.01989142193,0.0004957609799,1.817850904,3.556879723,1.082454935,2.421321776,0.9398133103,7.0450085,0.07545448276,-0.1188102586,-36.07283983,58.79020726,1
0.2777415,0.35795175,0.2166865,0.0472055,0.075169,0.0235025,1.082374,1.6686565,1.396309,4.48585971,4.817557044,2.139883948,2.810649683,2.571686813,2.948221472,5.071310592,6.068664998,4.712889253,0.1916915712,0.2875358743,0.1668416755,0.03198269506,0.05666060898,0.01934721765,0.8023665294,1.203546088,1.035085411,2.710374,5.693702,7.484656,1.095272,0.483012,-0.022682,-27.780876,63.679542,-59.692104,2.456576,-0.2968965,7.1398735,0.2146845,0.033463,-0.1233515,-36.439849,61.7853925,-61.873832,-1.9825,-0.747029,5.933134,-0.563103,-0.487725,-0.297525,-38.063407,51.593055,-70.164405,2.297598805,1.502304912,7.028605572,0.3562257869,0.1740295952,0.1442070686,35.85327873,61.36111543,62.25682952,-2.345799507,2.407056205,-1.694234878,0.133926193,-0.6396985388,-1.660323697,2.280657559,-2.286881925,-2.131441982,1.072329496,1.483486775,0.3664656319,0.2923117575,0.1726204202,0.0510092799,2.033196833,2.204077776,2.054866702,1.149890547,2.20073301,0.1342970593,0.08544616356,0.02979780949,0.002601946636,4.13388936,4.857958842,4.222477163,2.03201125,0.2370380536,7.019045464,0.02210182143,-0.1348841429,-35.79558221,61.32151766,1
0.306474,0.282531,0.225067,0.041013,0.048737,0.027964,1.262768,1.443161,1.745384,4.908260483,5.846038382,3.935000098,3.509613484,3.449650133,10.70915237,5.362899574,1.262768469,2.539633869,0.1632923257,0.1845913892,0.1703910252,0.03079809589,0.03672109175,0.02092693031,0.8023650468,1.069817591,1.293849165,4.123025,5.200471,7.264378,0.807913,0.53308,-0.085268,-31.208387,58.808868,-52.186954,3.739934,1.316878,6.680163,0.20816,0.035061,-0.121754,-37.341827,56.463729,-55.328643,-0.119716,0.962518,5.396806,-0.29412,-0.467751,-0.296726,-38.965385,52.495033,-62.310176,3.505177703,1.855748208,6.629219826,0.2532908137,0.1599431171,0.133326938,37.00611673,56.40216872,55.75274126,-2.409263936,2.501953493,-1.83577336,-0.2340768226,-0.4070893705,-3.021636676,2.176534324,-0.678579893,-1.497449815,0.9477102935,0.8692513483,0.3502072341,0.1777564913,0.1591187997,0.03590715443,1.549231478,1.16677403,2.095640829,0.8981548003,0.7555979065,0.1226451068,0.03159737021,0.02531879242,0.00128932374,2.400118172,1.361361638,4.391710485,3.374628265,1.639574184,6.61996302,0.01621753061,-0.1284007347,-36.97367384,56.39009908,1
0.53273725,0.4297815,0.380697,0.06931025,0.12503675,0.02177175,1.21766875,1.21766975,2.05082475,2.813360267,2.205981461,2.874994088,1.624458027,2.084897272,7.795645058,2.363310276,3.415255694,1.054466235,0.2520379293,0.2200885928,0.1845906479,0.04777685649,0.08568180611,0.01757106019,0.8023665294,0.936093543,1.293855095,3.098255,4.60189,7.494233,0.698189,0.49473,-0.084469,-31.208387,61.334403,-56.724952,2.870794,0.8044925,7.0369175,0.2102905,0.0394555,-0.1222865,-36.981037,59.891242,-58.993949,-0.502808,0.339994,5.631449,-0.476017,-0.471746,-0.396063,-38.784992,53.757801,-64.579177,2.630663659,1.687262682,6.928241042,0.3182179744,0.1894993556,0.1553215184,36.48751305,59.43393971,59.55399174,-1.960711699,1.86050811,-1.512102218,-0.6559616874,-0.5528493368,-2.856653936,1.511895418,-1.933889576,-1.235749873,0.9098293403,1.113416862,0.3482810788,0.2443219537,0.1850788598,0.06372927773,1.491120499,1.680157724,1.829762191,0.8277894285,1.239697109,0.1212997098,0.05969321707,0.03425418435,0.00406142084,2.223440342,2.822929976,3.348029677,2.468319643,1.267737452,6.9194815,0.04069178571,-0.1416451667,-36.45703181,59.4101865,1
0.373514,0.679987,0.430979,0.034356,0.073238,0.019707,1.623554,1.803951,1.570847,4.043242435,3.147446934,5.68497715,1.790055423,4.012991181,9.131739065,3.320271352,2.669233034,1.16834151,0.2129891521,0.31238577,0.298185406,0.02724429837,0.06120181958,0.01539830664,1.337273101,1.337274584,1.035086152,2.403901,6.488617,7.992252,0.936279,0.467565,-0.087931,-29.224039,62.416774,-57.248565,2.150103,0.703931,7.125507,0.211356,0.030534,-0.123352,-35.357479,60.071636,-61.612026,-0.905054,0.244221,4.668931,-0.402779,-0.518885,-0.293264,-37.341827,50.149894,-64.579177,1.990674364,1.996692157,7.018034662,0.3393206075,0.1541192452,0.1383786588,35.3191782,59.44830609,61.66126236,-2.167570832,2.03889404,-1.900400454,0.3176067954,-0.8459629213,-2.907878913,1.606326319,-1.76220839,0.6570372356,0.7496755628,1.491282651,0.528979006,0.2572562715,0.1519435474,0.03888430649,1.579357928,2.619826486,1.45546273,0.5620134494,2.223923944,0.2798187888,0.06618078924,0.02308684161,0.001511989291,2.494371466,6.863490816,2.118371758,1.844117939,1.327725735,6.998070571,0.02580504082,-0.132803102,-35.28384867,59.39055149,1
0.83561975,0.325628,0.33640275,0.19854175,0.10959075,0.02336975,1.262767,1.984348,2.66171025,1.67144629,3.767248907,-0.9464983563,1.134680987,0.8816503815,3.962968633,1.737611122,1.08361245,1.256959919,0.5147261317,0.2626874611,0.2342889569,0.01895284546,0.06416331751,0.01658364712,1.06981685,1.337270877,1.940782643,3.797397,4.688086,7.063255,0.253168,0.071547,-0.102579,-32.471153,62.416774,-56.201335,3.2826175,0.526751,6.8046685,0.2062955,-0.0209995,-0.13467,-37.883012,59.8912405,-58.295795,-0.306473,0.138871,6.335381,-0.588404,-0.521282,-0.263436,-38.965385,55.561752,-66.673637,3.083153272,1.495645376,6.76031301,0.252074549,0.2040522235,0.1502100494,37.22233132,59.6382068,59.07615273,-1.654460422,2.217931642,-0.5744068513,-1.557630286,-1.538759474,-2.012737084,1.652056792,-0.7412752955,-1.447836136,1.111521698,1.163908663,0.2257657262,0.2427791044,0.1795401683,0.03547004804,1.785731323,1.447103182,2.765152137,1.235480485,1.354683375,0.05097016314,0.05894169353,0.03223467204,0.001258124308,3.188836357,2.094107619,7.646066342,2.87582225,0.9392932,6.75654215,-0.0969672,-0.1459621,-37.17947165,59.62064745,1
0.684776,0.253798,0.191546,0.046339,0.062585,0.022105,2.345139,0.901978,1.221764,0.1053987106,-0.9936878829,-0.4749835436,9.067658692,8.525010712,2.156772782,-0.3384241723,3.925273873,4.626627994,0.03904803593,0.1100439258,0.1277936395,0.03060016849,0.0475789291,0.02981068281,0.8023650468,0.8023620816,0.9056942671,-7.321842,6.349746,-0.45971,-0.013907,0.490245,0.282598,4.329487,50.510684,-69.117172,-7.410432,6.1917215,-0.7350575,-0.059315,-0.011369,0.128265,2.705929,48.2557445,-73.3933595,-7.532542,6.000175,-1.053502,-0.67305,-0.105247,0.08126,0.541186,43.655662,-74.527862,7.411842256,6.185314507,0.7858616876,0.183139457,0.1311148844,0.1481258504,2.759148931,48.24332931,73.24033788,-0.5720472352,-0.1583736493,-0.2315855618,-3.198821682,3.039036881,1.487679397,-0.427765588,-1.656904484,2.071268944,0.05624098431,0.0980064876,0.1581930512,0.1541198902,0.1308166885,0.04843526373,0.9729620734,1.437116248,1.246405225,0.003163048316,0.009605271612,0.02502504146,0.02375294055,0.01711300598,0.002345974773,0.9466551963,2.06530311,1.553525984,-7.411628875,6.184538,-0.769775,0.0088378125,0.1399831875,2.58190775,48.2219195,2
0.684776,0.253798,0.191546,0.046339,0.062585,0.022105,2.345139,0.901978,1.221764,0.1053987106,-0.9936878829,-0.4749835436,9.067658692,8.525010712,2.156772782,-0.3384241723,3.925273873,4.626627994,0.03904803593,0.1100439258,0.1277936395,0.03060016849,0.0475789291,0.02981068281,0.8023650468,0.8023620816,0.9056942671,-7.321842,6.349746,-0.45971,-0.013907,0.490245,0.282598,4.329487,50.510684,-69.117172,-7.410432,6.1917215,-0.7350575,-0.059315,-0.011369,0.128265,2.705929,48.2557445,-73.3933595,-7.532542,6.000175,-1.053502,-0.67305,-0.105247,0.08126,0.541186,43.655662,-74.527862,7.411842256,6.185314507,0.7858616876,0.183139457,0.1311148844,0.1481258504,2.759148931,48.24332931,73.24033788,-0.5720472352,-0.1583736493,-0.2315855618,-3.198821682,3.039036881,1.487679397,-0.427765588,-1.656904484,2.071268944,0.05624098431,0.0980064876,0.1581930512,0.1541198902,0.1308166885,0.04843526373,0.9729620734,1.437116248,1.246405225,0.003163048316,0.009605271612,0.02502504146,0.02375294055,0.01711300598,0.002345974773,0.9466551963,2.06530311,1.553525984,-7.411628875,6.184538,-0.769775,0.0088378125,0.1399831875,2.58190775,48.2219195,2
